success,trial_type,trial_index,time_elapsed,internal_node_id,STUDY_ID,generalMultiple,PROLIFIC_PID,SESSION_ID,batchId,participant_number,genuine_first,choose_pretender,total_points,pretend_instructions,nonpretend_instructions,view_history,rt,responses,question_order,correct,test_part,grid,click_log,final_grid_state,num_clicks,points,cheat,grid_number,replay_log,decision,genuine_player,cheat_player,cheater,noncheater
1.0,fullscreen,0,2375,0.0-0.0,61814837a8ff57d06daa2c8c,,615734b16b50355d4521f849,6182caef440a724f328c5484,3016,348,True,True,58,1,1,,,,,,,,,,,,,,,,,,,
,instructions,1,92649,0.0-1.0-0.0,61814837a8ff57d06daa2c8c,,615734b16b50355d4521f849,6182caef440a724f328c5484,3016,348,True,True,58,1,1,"[{""page_index"":0,""viewing_time"":10712},{""page_index"":1,""viewing_time"":9501},{""page_index"":0,""viewing_time"":1989},{""page_index"":1,""viewing_time"":788},{""page_index"":2,""viewing_time"":18371},{""page_index"":3,""viewing_time"":48908}]",90269.0,,,,,,,,,,,,,,,,,
,survey-multi-choice,2,98777,0.0-1.0-1.0,61814837a8ff57d06daa2c8c,,615734b16b50355d4521f849,6182caef440a724f328c5484,3016,348,True,True,58,1,1,,6126.0,"{""Q0"":""... sink all ships with as <b>few clicks</b> as possible""}",[0],1.0,multichoice_nonpretend,,,,,,,,,,,,,
,instructions,3,106917,0.0-2.0,61814837a8ff57d06daa2c8c,,615734b16b50355d4521f849,6182caef440a724f328c5484,3016,348,True,True,58,1,1,"[{""page_index"":0,""viewing_time"":8138}]",8138.0,,,,,,,,,,,,,,,,,
,Battleships,4,128761,0.0-3.0,61814837a8ff57d06daa2c8c,,615734b16b50355d4521f849,6182caef440a724f328c5484,3016,348,True,True,58,1,1,,,,,,,"[['0', '0', '0', '0'], ['A', '0', 'B', 'B'], ['A', '0', '0', '0'], ['0', '0', '0', '0']]","{'i': [1, 2, 3, 2, 0, 0, 2, 3, 1, 1, 2, 1], 'j': [1, 3, 1, 1, 3, 0, 0, 0, 0, 2, 2, 3], 't': [2788, 4836, 5641, 6206, 7505, 8068, 8667, 10601, 11182, 18441, 19074, 19617], 'hit': ['0', '0', '0', '0', '0', '0', 'A', '0', 'A', 'B', '0', 'B']}","[['sea', 'unknown', 'unknown', 'sea'], ['ship', 'sea', 'ship', 'ship'], ['ship', 'sea', 'sea', 'sea'], ['sea', 'sea', 'unknown', 'unknown']]",12.0,4.0,0.0,,,,,,,
,instructions,5,152606,0.0-4.0,61814837a8ff57d06daa2c8c,,615734b16b50355d4521f849,6182caef440a724f328c5484,3016,348,True,True,58,1,1,"[{""page_index"":0,""viewing_time"":23844}]",23844.0,,,,,,,,,,,,,,,,,
,Battleships,6,200805,0.0-5.0-0.0,61814837a8ff57d06daa2c8c,,615734b16b50355d4521f849,6182caef440a724f328c5484,3016,348,True,True,58,1,1,,,,,,non-pretend,"[['0', 'A', '0', '0', '0'], ['0', 'A', '0', 'B', 'B'], ['0', 'A', '0', '0', '0'], ['0', '0', 'C', '0', '0'], ['0', '0', 'C', '0', '0']]","{'i': [1, 1, 2, 1, 2, 2, 3, 3, 4, 1, 1, 2, 2, 0, 0, 3, 0, 4, 4, 3, 4], 'j': [1, 2, 1, 0, 0, 2, 1, 3, 4, 3, 4, 3, 4, 4, 3, 0, 1, 3, 1, 2, 2], 't': [1741, 2687, 3353, 4144, 4603, 5454, 6370, 7641, 8475, 9570, 10329, 11836, 12257, 12902, 13169, 14153, 14687, 20313, 44725, 45672, 46118], 'hit': ['A', '0', 'A', '0', '0', '0', '0', '0', '0', 'B', 'B', '0', '0', '0', '0', '0', 'A', '0', '0', 'C', 'C']}","[['unknown', 'ship', 'unknown', 'sea', 'sea'], ['sea', 'ship', 'sea', 'ship', 'ship'], ['sea', 'ship', 'sea', 'sea', 'sea'], ['sea', 'sea', 'ship', 'sea', 'unknown'], ['unknown', 'sea', 'ship', 'sea', 'sea']]",21.0,4.0,0.0,8.0,,,,,,
,instructions,7,204010,0.0-5.0-1.0,61814837a8ff57d06daa2c8c,,615734b16b50355d4521f849,6182caef440a724f328c5484,3016,348,True,True,58,1,1,"[{""page_index"":0,""viewing_time"":3200}]",3201.0,,,,,,,,,,,,,,,,,
,Battleships,8,218270,0.0-5.0-0.1,61814837a8ff57d06daa2c8c,,615734b16b50355d4521f849,6182caef440a724f328c5484,3016,348,True,True,58,1,1,,,,,,non-pretend,"[['0', '0', '0', '0', '0'], ['0', '0', '0', '0', 'A'], ['0', 'B', 'B', '0', 'A'], ['0', '0', '0', '0', 'A'], ['C', 'C', '0', '0', '0']]","{'i': [1, 2, 3, 2, 2, 2, 3, 1, 4, 4, 4, 3, 4, 0, 1, 1, 0, 2, 3], 'j': [1, 1, 1, 2, 0, 3, 2, 2, 3, 2, 0, 0, 1, 3, 4, 3, 4, 4, 4], 't': [1177, 1905, 2673, 3286, 3756, 4586, 5086, 5686, 6485, 6955, 7458, 8128, 8591, 9577, 10207, 10727, 11357, 11692, 12186], 'hit': ['0', 'B', '0', 'B', '0', '0', '0', '0', '0', '0', 'C', '0', 'C', '0', 'A', '0', '0', 'A', 'A']}","[['unknown', 'unknown', 'unknown', 'sea', 'sea'], ['unknown', 'sea', 'sea', 'sea', 'ship'], ['sea', 'ship', 'ship', 'sea', 'ship'], ['sea', 'sea', 'sea', 'unknown', 'ship'], ['ship', 'ship', 'sea', 'sea', 'unknown']]",19.0,6.0,0.0,0.0,,,,,,
,instructions,9,219291,0.0-5.0-1.1,61814837a8ff57d06daa2c8c,,615734b16b50355d4521f849,6182caef440a724f328c5484,3016,348,True,True,58,1,1,"[{""page_index"":0,""viewing_time"":1018}]",1018.0,,,,,,,,,,,,,,,,,
,Battleships,10,232453,0.0-5.0-0.2,61814837a8ff57d06daa2c8c,,615734b16b50355d4521f849,6182caef440a724f328c5484,3016,348,True,True,58,1,1,,,,,,non-pretend,"[['0', '0', '0', '0', 'B'], ['A', 'A', 'A', '0', 'B'], ['0', '0', '0', 'C', '0'], ['0', '0', '0', 'C', '0'], ['0', '0', '0', '0', '0']]","{'i': [2, 2, 1, 1, 1, 0, 0, 1, 3, 4, 4, 3, 2, 3, 1, 0], 'j': [1, 2, 3, 1, 2, 2, 1, 0, 1, 1, 3, 3, 3, 2, 4, 4], 't': [625, 1269, 1993, 2709, 3564, 4335, 4778, 5298, 6291, 7026, 7626, 8310, 9118, 9483, 10614, 11091], 'hit': ['0', '0', '0', 'A', 'A', '0', '0', 'A', '0', '0', '0', 'C', 'C', '0', 'B', 'B']}","[['unknown', 'sea', 'sea', 'unknown', 'ship'], ['ship', 'ship', 'ship', 'sea', 'ship'], ['unknown', 'sea', 'sea', 'ship', 'unknown'], ['unknown', 'sea', 'sea', 'ship', 'unknown'], ['unknown', 'sea', 'unknown', 'sea', 'unknown']]",16.0,9.0,0.0,4.0,,,,,,
,instructions,11,233284,0.0-5.0-1.2,61814837a8ff57d06daa2c8c,,615734b16b50355d4521f849,6182caef440a724f328c5484,3016,348,True,True,58,1,1,"[{""page_index"":0,""viewing_time"":827}]",828.0,,,,,,,,,,,,,,,,,
,Battleships,12,252970,0.0-5.0-0.3,61814837a8ff57d06daa2c8c,,615734b16b50355d4521f849,6182caef440a724f328c5484,3016,348,True,True,58,1,1,,,,,,non-pretend,"[['0', '0', '0', 'B', '0'], ['0', '0', '0', 'B', '0'], ['C', 'C', '0', '0', 'A'], ['0', '0', '0', '0', 'A'], ['0', '0', '0', '0', 'A']]","{'i': [1, 2, 3, 3, 4, 3, 2, 3, 1, 2, 0, 0, 0, 1, 2, 3, 4, 2], 'j': [1, 2, 2, 3, 1, 1, 0, 0, 0, 1, 4, 3, 2, 3, 3, 4, 4, 4], 't': [885, 1649, 2067, 2501, 3553, 4067, 4885, 5483, 6027, 7217, 8517, 8999, 9686, 10599, 11017, 13283, 13989, 17605], 'hit': ['0', '0', '0', '0', '0', '0', 'C', '0', '0', 'C', '0', 'B', '0', 'B', '0', 'A', 'A', 'A']}","[['unknown', 'unknown', 'sea', 'ship', 'sea'], ['sea', 'sea', 'unknown', 'ship', 'unknown'], ['ship', 'ship', 'sea', 'sea', 'ship'], ['sea', 'sea', 'sea', 'sea', 'ship'], ['unknown', 'sea', 'unknown', 'unknown', 'ship']]",18.0,7.0,0.0,6.0,,,,,,
,instructions,13,254568,0.0-5.0-1.3,61814837a8ff57d06daa2c8c,,615734b16b50355d4521f849,6182caef440a724f328c5484,3016,348,True,True,58,1,1,"[{""page_index"":0,""viewing_time"":1594}]",1595.0,,,,,,,,,,,,,,,,,
,Battleships,14,267868,0.0-5.0-0.4,61814837a8ff57d06daa2c8c,,615734b16b50355d4521f849,6182caef440a724f328c5484,3016,348,True,True,58,1,1,,,,,,non-pretend,"[['B', 'B', '0', '0', '0'], ['0', '0', '0', '0', '0'], ['A', 'A', 'A', '0', '0'], ['0', '0', '0', '0', '0'], ['0', '0', '0', 'C', 'C']]","{'i': [1, 2, 3, 2, 2, 2, 0, 0, 0, 0, 4, 4, 4], 'j': [1, 2, 3, 3, 1, 0, 3, 4, 1, 0, 2, 3, 4], 't': [1136, 1896, 2601, 3079, 3617, 4306, 5561, 6196, 6796, 7762, 8711, 9238, 10065], 'hit': ['0', 'A', '0', '0', 'A', 'A', '0', '0', 'B', 'B', '0', 'C', 'C']}","[['ship', 'ship', 'unknown', 'sea', 'sea'], ['unknown', 'sea', 'unknown', 'unknown', 'unknown'], ['ship', 'ship', 'ship', 'sea', 'unknown'], ['unknown', 'unknown', 'unknown', 'sea', 'unknown'], ['unknown', 'unknown', 'sea', 'ship', 'ship']]",13.0,12.0,0.0,2.0,,,,,,
,instructions,15,271502,0.0-5.0-1.4,61814837a8ff57d06daa2c8c,,615734b16b50355d4521f849,6182caef440a724f328c5484,3016,348,True,True,58,1,1,"[{""page_index"":0,""viewing_time"":3631}]",3631.0,,,,,,,,,,,,,,,,,
,instructions,16,324651,0.0-6.0-0.0,61814837a8ff57d06daa2c8c,,615734b16b50355d4521f849,6182caef440a724f328c5484,3016,348,True,True,58,1,1,"[{""page_index"":0,""viewing_time"":4852},{""page_index"":1,""viewing_time"":9425},{""page_index"":2,""viewing_time"":24603},{""page_index"":3,""viewing_time"":14267}]",53147.0,,,,,,,,,,,,,,,,,
,survey-multi-choice,17,336975,0.0-6.0-1.0,61814837a8ff57d06daa2c8c,,615734b16b50355d4521f849,6182caef440a724f328c5484,3016,348,True,True,58,1,1,,12323.0,"{""Q0"":""... play the game as if the cross hints <b>were not there</b> so that I look like someone who <b>had no hints</b>""}",[0],1.0,multichoice_pretend,,,,,,,,,,,,,
,Battleships,18,356030,0.0-7.0,61814837a8ff57d06daa2c8c,,615734b16b50355d4521f849,6182caef440a724f328c5484,3016,348,True,True,58,1,1,,,,,,,"[['0', '0', '0', '0'], ['0', '0', 'B', '0'], ['0', '0', 'B', '0'], ['A', 'A', '0', '0']]","{'i': [1, 2, 0, 2, 3, 1, 1, 3, 3], 'j': [1, 1, 2, 2, 2, 2, 0, 0, 1], 't': [6812, 7593, 8434, 9364, 10835, 11608, 14931, 16329, 16826], 'hit': ['0', '0', '0', 'B', '0', 'B', '0', 'A', 'A']}","[['unknown', 'unknown', 'sea', 'unknown'], ['sea', 'sea', 'ship', 'unknown'], ['unknown', 'sea', 'ship', 'unknown'], ['ship', 'ship', 'sea', 'unknown']]",9.0,7.0,1.0,,,,,,,
,instructions,19,364813,0.0-8.0,61814837a8ff57d06daa2c8c,,615734b16b50355d4521f849,6182caef440a724f328c5484,3016,348,True,True,58,1,1,"[{""page_index"":0,""viewing_time"":8781}]",8782.0,,,,,,,,,,,,,,,,,
,Battleships,20,392046,0.0-9.0-0.0,61814837a8ff57d06daa2c8c,,615734b16b50355d4521f849,6182caef440a724f328c5484,3016,348,True,True,58,1,1,,,,,,pretend,"[['C', 'C', '0', '0', '0'], ['0', '0', '0', '0', '0'], ['B', 'B', '0', 'A', '0'], ['0', '0', '0', 'A', '0'], ['0', '0', '0', 'A', '0']]","{'i': [1, 2, 1, 3, 3, 3, 4, 4, 4, 2, 3, 1, 2, 3, 2, 0, 0, 0], 'j': [2, 2, 1, 2, 3, 1, 1, 2, 3, 3, 4, 4, 1, 0, 0, 3, 1, 0], 't': [2879, 3316, 4796, 5812, 6487, 8702, 9036, 10414, 10696, 12863, 15999, 16512, 17313, 18449, 18795, 20695, 21287, 25162], 'hit': ['0', '0', '0', '0', 'A', '0', '0', '0', 'A', 'A', '0', '0', 'B', '0', 'B', '0', 'C', 'C']}","[['ship', 'ship', 'unknown', 'sea', 'unknown'], ['unknown', 'sea', 'sea', 'unknown', 'sea'], ['ship', 'ship', 'sea', 'ship', 'unknown'], ['sea', 'sea', 'sea', 'ship', 'sea'], ['unknown', 'sea', 'sea', 'ship', 'unknown']]",18.0,7.0,1.0,1.0,,,,,,
,instructions,21,397260,0.0-9.0-1.0,61814837a8ff57d06daa2c8c,,615734b16b50355d4521f849,6182caef440a724f328c5484,3016,348,True,True,58,1,1,"[{""page_index"":0,""viewing_time"":5211}]",5211.0,,,,,,,,,,,,,,,,,
,Battleships,22,413028,0.0-9.0-0.1,61814837a8ff57d06daa2c8c,,615734b16b50355d4521f849,6182caef440a724f328c5484,3016,348,True,True,58,1,1,,,,,,pretend,"[['0', '0', '0', '0', 'B'], ['0', '0', '0', '0', 'B'], ['0', 'A', 'A', 'A', '0'], ['0', '0', '0', '0', '0'], ['0', '0', 'C', 'C', '0']]","{'i': [3, 2, 1, 1, 2, 2, 2, 2, 3, 4, 4, 4, 4, 0, 0, 0, 0, 1], 'j': [3, 2, 1, 3, 3, 4, 1, 0, 1, 1, 2, 4, 3, 1, 2, 4, 3, 4], 't': [1460, 1824, 2261, 3281, 4099, 5015, 5460, 6758, 7174, 7625, 8275, 8808, 9399, 11253, 11542, 12374, 13358, 13684], 'hit': ['0', 'A', '0', '0', 'A', '0', 'A', '0', '0', '0', 'C', '0', 'C', '0', '0', 'B', '0', 'B']}","[['unknown', 'sea', 'sea', 'sea', 'ship'], ['unknown', 'sea', 'unknown', 'sea', 'ship'], ['sea', 'ship', 'ship', 'ship', 'sea'], ['unknown', 'sea', 'unknown', 'sea', 'unknown'], ['unknown', 'sea', 'ship', 'ship', 'sea']]",18.0,7.0,1.0,3.0,,,,,,
,instructions,23,417765,0.0-9.0-1.1,61814837a8ff57d06daa2c8c,,615734b16b50355d4521f849,6182caef440a724f328c5484,3016,348,True,True,58,1,1,"[{""page_index"":0,""viewing_time"":4735}]",4735.0,,,,,,,,,,,,,,,,,
,Battleships,24,441177,0.0-9.0-0.2,61814837a8ff57d06daa2c8c,,615734b16b50355d4521f849,6182caef440a724f328c5484,3016,348,True,True,58,1,1,,,,,,pretend,"[['0', '0', '0', 'C', '0'], ['0', '0', '0', 'C', '0'], ['0', '0', '0', '0', '0'], ['A', 'A', 'A', '0', '0'], ['0', '0', '0', 'B', 'B']]","{'i': [3, 1, 1, 3, 2, 2, 1, 3, 1, 3, 3, 4, 4, 4, 4, 0, 0], 'j': [1, 1, 3, 3, 2, 3, 4, 4, 0, 0, 2, 1, 3, 2, 4, 2, 3], 't': [1433, 2024, 2530, 2979, 4064, 6231, 6819, 7201, 7852, 8198, 12956, 13900, 15731, 17633, 18016, 19031, 21346], 'hit': ['A', '0', 'C', '0', '0', '0', '0', '0', '0', 'A', 'A', '0', 'B', '0', 'B', '0', 'C']}","[['unknown', 'unknown', 'sea', 'ship', 'unknown'], ['sea', 'sea', 'unknown', 'ship', 'sea'], ['unknown', 'unknown', 'sea', 'sea', 'unknown'], ['ship', 'ship', 'ship', 'sea', 'sea'], ['unknown', 'sea', 'sea', 'ship', 'ship']]",17.0,8.0,1.0,7.0,,,,,,
,instructions,25,442936,0.0-9.0-1.2,61814837a8ff57d06daa2c8c,,615734b16b50355d4521f849,6182caef440a724f328c5484,3016,348,True,True,58,1,1,"[{""page_index"":0,""viewing_time"":1755}]",1755.0,,,,,,,,,,,,,,,,,
,Battleships,26,458109,0.0-9.0-0.3,61814837a8ff57d06daa2c8c,,615734b16b50355d4521f849,6182caef440a724f328c5484,3016,348,True,True,58,1,1,,,,,,pretend,"[['B', 'B', '0', '0', '0'], ['0', '0', '0', '0', '0'], ['A', 'A', 'A', '0', '0'], ['0', '0', '0', '0', '0'], ['0', '0', '0', 'C', 'C']]","{'i': [2, 2, 1, 3, 3, 3, 2, 4, 4, 2, 4, 2, 0, 1, 0, 4, 0], 'j': [2, 3, 1, 3, 2, 1, 1, 2, 3, 4, 4, 0, 3, 3, 1, 0, 0], 't': [861, 1190, 1507, 1906, 2239, 2565, 2860, 3579, 3895, 5339, 6032, 7825, 8878, 9890, 10562, 12673, 13113], 'hit': ['A', '0', '0', '0', '0', '0', 'A', '0', 'C', '0', 'C', 'A', '0', '0', 'B', '0', 'B']}","[['ship', 'ship', 'unknown', 'sea', 'unknown'], ['unknown', 'sea', 'unknown', 'sea', 'unknown'], ['ship', 'ship', 'ship', 'sea', 'sea'], ['unknown', 'sea', 'sea', 'sea', 'unknown'], ['sea', 'unknown', 'sea', 'ship', 'ship']]",17.0,8.0,1.0,2.0,,,,,,
,instructions,27,459306,0.0-9.0-1.3,61814837a8ff57d06daa2c8c,,615734b16b50355d4521f849,6182caef440a724f328c5484,3016,348,True,True,58,1,1,"[{""page_index"":0,""viewing_time"":1195}]",1195.0,,,,,,,,,,,,,,,,,
,Battleships,28,474408,0.0-9.0-0.4,61814837a8ff57d06daa2c8c,,615734b16b50355d4521f849,6182caef440a724f328c5484,3016,348,True,True,58,1,1,,,,,,pretend,"[['0', '0', '0', '0', '0'], ['0', '0', '0', '0', '0'], ['C', '0', '0', '0', 'A'], ['C', '0', 'B', '0', 'A'], ['0', '0', 'B', '0', 'A']]","{'i': [2, 2, 1, 3, 4, 3, 1, 1, 1, 2, 3, 4, 4, 3, 4, 0, 0, 2, 1, 3], 'j': [2, 1, 1, 3, 3, 1, 3, 2, 4, 4, 4, 4, 1, 2, 2, 2, 1, 0, 0, 0], 't': [839, 1137, 1414, 1913, 2279, 2814, 3614, 3962, 4347, 4746, 6121, 6480, 8331, 8798, 9111, 10352, 10637, 11553, 12630, 13038], 'hit': ['0', '0', '0', '0', '0', '0', '0', '0', '0', 'A', 'A', 'A', '0', 'B', 'B', '0', '0', 'C', '0', 'C']}","[['unknown', 'sea', 'sea', 'unknown', 'unknown'], ['sea', 'sea', 'sea', 'sea', 'sea'], ['ship', 'sea', 'sea', 'unknown', 'ship'], ['ship', 'sea', 'ship', 'sea', 'ship'], ['unknown', 'sea', 'ship', 'sea', 'ship']]",20.0,5.0,1.0,5.0,,,,,,
,instructions,29,475442,0.0-9.0-1.4,61814837a8ff57d06daa2c8c,,615734b16b50355d4521f849,6182caef440a724f328c5484,3016,348,True,True,58,1,1,"[{""page_index"":0,""viewing_time"":1031}]",1031.0,,,,,,,,,,,,,,,,,
,instructions,30,504755,0.0-10.0,61814837a8ff57d06daa2c8c,,615734b16b50355d4521f849,6182caef440a724f328c5484,3016,348,True,True,58,1,1,"[{""page_index"":0,""viewing_time"":10485},{""page_index"":1,""viewing_time"":18827}]",29312.0,,,,,,,,,,,,,,,,,
,Battleships_replay_2players,31,556602,0.0-11.0-0.0,61814837a8ff57d06daa2c8c,,615734b16b50355d4521f849,6182caef440a724f328c5484,3016,348,True,True,58,1,1,,,,,0.0,judge,"[['0', '0', '0', '0', 'B'], ['0', '0', '0', '0', 'B'], ['0', 'A', 'A', 'A', '0'], ['0', '0', '0', '0', '0'], ['0', '0', 'C', 'C', '0']]",,,,,,3.0,"['left', 'right']",right,331.0,336.0,left,right
,instructions,32,563737,0.0-11.0-1.0,61814837a8ff57d06daa2c8c,,615734b16b50355d4521f849,6182caef440a724f328c5484,3016,348,True,True,58,1,1,"[{""page_index"":0,""viewing_time"":7133}]",7133.0,,,,,,,,,,,,,,,,,
,Battleships_replay_2players,33,616395,0.0-11.0-0.1,61814837a8ff57d06daa2c8c,,615734b16b50355d4521f849,6182caef440a724f328c5484,3016,348,True,True,58,1,1,,,,,1.0,judge,"[['0', '0', '0', '0', '0'], ['0', '0', '0', '0', 'A'], ['0', 'B', 'B', '0', 'A'], ['0', '0', '0', '0', 'A'], ['C', 'C', '0', '0', '0']]",,,,,,0.0,"['left', 'right']",right,326.0,333.0,right,left
,instructions,34,619504,0.0-11.0-1.1,61814837a8ff57d06daa2c8c,,615734b16b50355d4521f849,6182caef440a724f328c5484,3016,348,True,True,58,1,1,"[{""page_index"":0,""viewing_time"":3108}]",3108.0,,,,,,,,,,,,,,,,,
,Battleships_replay_2players,35,664376,0.0-11.0-0.2,61814837a8ff57d06daa2c8c,,615734b16b50355d4521f849,6182caef440a724f328c5484,3016,348,True,True,58,1,1,,,,,0.0,judge,"[['0', '0', '0', '0', 'B'], ['A', 'A', 'A', '0', 'B'], ['0', '0', '0', 'C', '0'], ['0', '0', '0', 'C', '0'], ['0', '0', '0', '0', '0']]",,,,,,4.0,"['left', 'right']",left,334.0,329.0,right,left
,instructions,36,666440,0.0-11.0-1.2,61814837a8ff57d06daa2c8c,,615734b16b50355d4521f849,6182caef440a724f328c5484,3016,348,True,True,58,1,1,"[{""page_index"":0,""viewing_time"":2064}]",2064.0,,,,,,,,,,,,,,,,,
,Battleships_replay_2players,37,713491,0.0-11.0-0.3,61814837a8ff57d06daa2c8c,,615734b16b50355d4521f849,6182caef440a724f328c5484,3016,348,True,True,58,1,1,,,,,1.0,judge,"[['C', 'C', '0', '0', '0'], ['0', '0', '0', '0', '0'], ['B', 'B', '0', 'A', '0'], ['0', '0', '0', 'A', '0'], ['0', '0', '0', 'A', '0']]",,,,,,1.0,"['left', 'right']",left,331.0,338.0,left,right
,instructions,38,714918,0.0-11.0-1.3,61814837a8ff57d06daa2c8c,,615734b16b50355d4521f849,6182caef440a724f328c5484,3016,348,True,True,58,1,1,"[{""page_index"":0,""viewing_time"":1424}]",1424.0,,,,,,,,,,,,,,,,,
,Battleships_replay_2players,39,778405,0.0-11.0-0.4,61814837a8ff57d06daa2c8c,,615734b16b50355d4521f849,6182caef440a724f328c5484,3016,348,True,True,58,1,1,,,,,0.0,judge,"[['B', 'B', '0', '0', '0'], ['0', '0', '0', '0', '0'], ['A', 'A', 'A', '0', '0'], ['0', '0', '0', '0', '0'], ['0', '0', '0', 'C', 'C']]",,,,,,2.0,"['left', 'right']",left,338.0,336.0,right,left
,instructions,40,779608,0.0-11.0-1.4,61814837a8ff57d06daa2c8c,,615734b16b50355d4521f849,6182caef440a724f328c5484,3016,348,True,True,58,1,1,"[{""page_index"":0,""viewing_time"":1201}]",1201.0,,,,,,,,,,,,,,,,,
,survey-text,41,805659,0.0-12.0,61814837a8ff57d06daa2c8c,,615734b16b50355d4521f849,6182caef440a724f328c5484,3016,348,True,True,58,1,1,,26041.0,"{""debrief"":""No strategy, I just tried to fill a lot of squares but not make it obvious, so about half way unclicked squares.""}",,,,,,,,,,,,,,,,
,survey-text,42,837722,0.0-13.0,61814837a8ff57d06daa2c8c,,615734b16b50355d4521f849,6182caef440a724f328c5484,3016,348,True,True,58,1,1,,32056.0,"{""worker_comments"":""I think this was great. I feel as though those who were told to not make it seem like they had hints actually had more clicks than people who didn't have any hints; they'd purposely use extra clicks to make it seem like they didn't have any.""}",,,,,,,,,,,,,,,,
,instructions,43,847786,0.0-14.0,61814837a8ff57d06daa2c8c,,615734b16b50355d4521f849,6182caef440a724f328c5484,3016,348,True,True,58,1,1,"[{""page_index"":0,""viewing_time"":10063}]",10063.0,,,,,,,,,,,,,,,,,
1.0,fullscreen,0,2938,0.0-0.0,61814837a8ff57d06daa2c8c,,6154c002d34228fc7357c6ef,6182caef316172232d8a5cbb,3016,346,True,False,71,1,1,,,,,,,,,,,,,,,,,,,
,instructions,1,36407,0.0-1.0-0.0,61814837a8ff57d06daa2c8c,,6154c002d34228fc7357c6ef,6182caef316172232d8a5cbb,3016,346,True,False,71,1,1,"[{""page_index"":0,""viewing_time"":4384.79999999702},{""page_index"":1,""viewing_time"":4297.29999999702},{""page_index"":2,""viewing_time"":9830.20000000298},{""page_index"":3,""viewing_time"":14950.79999999702}]",33464.29999999702,,,,,,,,,,,,,,,,,
,survey-multi-choice,2,40464,0.0-1.0-1.0,61814837a8ff57d06daa2c8c,,6154c002d34228fc7357c6ef,6182caef316172232d8a5cbb,3016,346,True,False,71,1,1,,4053.60000000149,"{""Q0"":""... sink all ships with as <b>few clicks</b> as possible""}",[0],1.0,multichoice_nonpretend,,,,,,,,,,,,,
,instructions,3,44790,0.0-2.0,61814837a8ff57d06daa2c8c,,6154c002d34228fc7357c6ef,6182caef316172232d8a5cbb,3016,346,True,False,71,1,1,"[{""page_index"":0,""viewing_time"":4323.60000000149}]",4324.0,,,,,,,,,,,,,,,,,
,Battleships,4,66235,0.0-3.0,61814837a8ff57d06daa2c8c,,6154c002d34228fc7357c6ef,6182caef316172232d8a5cbb,3016,346,True,False,71,1,1,,,,,,,"[['0', '0', '0', '0'], ['A', '0', 'B', 'B'], ['A', '0', '0', '0'], ['0', '0', '0', '0']]","{'i': [0, 0, 2, 2, 0, 1, 1, 3, 3, 3, 2, 2, 1], 'j': [0, 1, 2, 3, 3, 3, 2, 1, 0, 2, 0, 1, 0], 't': [1922.6000000014901, 2972, 5097.4000000059605, 5514.10000000149, 8313.10000000149, 8825.90000000596, 10838.80000000447, 13490.80000000447, 14011.5, 15157.5, 17067.20000000298, 17563.40000000596, 19022.60000000149], 'hit': ['0', '0', '0', '0', '0', 'B', 'B', '0', '0', '0', 'A', '0', 'A']}","[['sea', 'sea', 'unknown', 'sea'], ['ship', 'unknown', 'ship', 'ship'], ['ship', 'sea', 'sea', 'sea'], ['sea', 'sea', 'sea', 'unknown']]",13.0,3.0,0.0,,,,,,,
,instructions,5,74218,0.0-4.0,61814837a8ff57d06daa2c8c,,6154c002d34228fc7357c6ef,6182caef316172232d8a5cbb,3016,346,True,False,71,1,1,"[{""page_index"":0,""viewing_time"":7980.79999999702}]",7981.20000000298,,,,,,,,,,,,,,,,,
,Battleships,6,118575,0.0-5.0-0.0,61814837a8ff57d06daa2c8c,,6154c002d34228fc7357c6ef,6182caef316172232d8a5cbb,3016,346,True,False,71,1,1,,,,,,non-pretend,"[['0', '0', '0', '0', 'B'], ['A', 'A', 'A', '0', 'B'], ['0', '0', '0', 'C', '0'], ['0', '0', '0', 'C', '0'], ['0', '0', '0', '0', '0']]","{'i': [0, 1, 2, 1, 1, 1, 4, 4, 0, 1, 2, 3, 4, 4, 3, 3, 4, 2], 'j': [0, 1, 1, 2, 3, 0, 4, 0, 4, 4, 4, 2, 1, 2, 3, 4, 3, 3], 't': [2455.7999999970198, 4237.70000000298, 5823.70000000298, 6779.79999999702, 7883.20000000298, 9039.29999999702, 14181.5, 15370.60000000149, 16419.89999999851, 17805.39999999851, 18686.29999999702, 22086.79999999702, 23604.39999999851, 24205.29999999702, 39272.29999999702, 39803.60000000149, 41248.89999999851, 41974.39999999851], 'hit': ['0', 'A', '0', 'A', '0', 'A', '0', '0', 'B', 'B', '0', '0', '0', '0', 'C', '0', '0', 'C']}","[['sea', 'unknown', 'unknown', 'unknown', 'ship'], ['ship', 'ship', 'ship', 'sea', 'ship'], ['unknown', 'sea', 'unknown', 'ship', 'sea'], ['unknown', 'unknown', 'sea', 'ship', 'sea'], ['sea', 'sea', 'sea', 'sea', 'sea']]",18.0,7.0,0.0,4.0,,,,,,
,instructions,7,122073,0.0-5.0-1.0,61814837a8ff57d06daa2c8c,,6154c002d34228fc7357c6ef,6182caef316172232d8a5cbb,3016,346,True,False,71,1,1,"[{""page_index"":0,""viewing_time"":3493.39999999851}]",3493.89999999851,,,,,,,,,,,,,,,,,
,Battleships,8,151293,0.0-5.0-0.1,61814837a8ff57d06daa2c8c,,6154c002d34228fc7357c6ef,6182caef316172232d8a5cbb,3016,346,True,False,71,1,1,,,,,,non-pretend,"[['0', '0', '0', '0', 'B'], ['0', '0', '0', '0', 'B'], ['0', 'A', 'A', 'A', '0'], ['0', '0', '0', '0', '0'], ['0', '0', 'C', 'C', '0']]","{'i': [1, 2, 1, 2, 2, 2, 0, 0, 1, 0, 1, 3, 4, 4, 4, 4], 'j': [1, 2, 3, 3, 4, 1, 4, 3, 4, 1, 0, 4, 1, 3, 4, 2], 't': [2787.7999999970198, 3679.10000000149, 5051, 5788.10000000149, 7312.20000000298, 8123.29999999702, 10830.60000000149, 11487.29999999702, 12155.79999999702, 17157.89999999851, 18995.20000000298, 22608, 23881.5, 25130.10000000149, 26114.20000000298, 26832.39999999851], 'hit': ['0', 'A', '0', 'A', '0', 'A', 'B', '0', 'B', '0', '0', '0', '0', 'C', '0', 'C']}","[['unknown', 'sea', 'unknown', 'sea', 'ship'], ['sea', 'sea', 'unknown', 'sea', 'ship'], ['unknown', 'ship', 'ship', 'ship', 'sea'], ['unknown', 'unknown', 'unknown', 'unknown', 'sea'], ['unknown', 'sea', 'ship', 'ship', 'sea']]",16.0,9.0,0.0,3.0,,,,,,
,instructions,9,154231,0.0-5.0-1.1,61814837a8ff57d06daa2c8c,,6154c002d34228fc7357c6ef,6182caef316172232d8a5cbb,3016,346,True,False,71,1,1,"[{""page_index"":0,""viewing_time"":2933.89999999851}]",2934.2999999970198,,,,,,,,,,,,,,,,,
,Battleships,10,193333,0.0-5.0-0.2,61814837a8ff57d06daa2c8c,,6154c002d34228fc7357c6ef,6182caef316172232d8a5cbb,3016,346,True,False,71,1,1,,,,,,non-pretend,"[['C', 'C', '0', '0', '0'], ['0', '0', '0', '0', '0'], ['B', 'B', '0', 'A', '0'], ['0', '0', '0', 'A', '0'], ['0', '0', '0', 'A', '0']]","{'i': [3, 3, 1, 0, 1, 2, 2, 2, 1, 3, 0, 0, 1, 0, 4, 4, 4, 3, 2, 2], 'j': [0, 2, 4, 2, 1, 3, 4, 2, 3, 3, 4, 0, 0, 1, 0, 1, 3, 1, 1, 0], 't': [2840.10000000149, 3928.39999999851, 4996.79999999702, 5885.5, 7118.69999999553, 7967.60000000149, 9237.19999999553, 9982.19999999553, 10827, 11594.60000000149, 16628.60000000149, 19077.39999999851, 20964, 21704.5, 23093.39999999851, 24878.69999999553, 32373.79999999702, 35300.89999999851, 36190.10000000149, 36702.5], 'hit': ['0', '0', '0', '0', '0', 'A', '0', '0', '0', 'A', '0', 'C', '0', 'C', '0', '0', 'A', '0', 'B', 'B']}","[['ship', 'ship', 'sea', 'unknown', 'sea'], ['sea', 'sea', 'unknown', 'sea', 'sea'], ['ship', 'ship', 'sea', 'ship', 'sea'], ['sea', 'sea', 'sea', 'ship', 'unknown'], ['sea', 'sea', 'unknown', 'ship', 'unknown']]",20.0,5.0,0.0,1.0,,,,,,
,instructions,11,194464,0.0-5.0-1.2,61814837a8ff57d06daa2c8c,,6154c002d34228fc7357c6ef,6182caef316172232d8a5cbb,3016,346,True,False,71,1,1,"[{""page_index"":0,""viewing_time"":1127.2999999970198}]",1127.7999999970198,,,,,,,,,,,,,,,,,
,Battleships,12,223134,0.0-5.0-0.3,61814837a8ff57d06daa2c8c,,6154c002d34228fc7357c6ef,6182caef316172232d8a5cbb,3016,346,True,False,71,1,1,,,,,,non-pretend,"[['0', '0', '0', 'C', '0'], ['0', '0', '0', 'C', '0'], ['0', '0', '0', '0', '0'], ['A', 'A', 'A', '0', '0'], ['0', '0', '0', 'B', 'B']]","{'i': [0, 2, 2, 4, 4, 4, 3, 2, 3, 3, 1, 0, 0, 0, 1], 'j': [0, 3, 1, 3, 4, 2, 2, 2, 1, 0, 0, 2, 3, 4, 3], 't': [2309.3000000044703, 4191.9000000059605, 5545.60000000149, 7015.4000000059605, 9410.20000000298, 10411.40000000596, 14417.10000000149, 16495.5, 17296.80000000447, 18161.80000000447, 22837.60000000149, 24172.90000000596, 24826.30000000447, 25559, 26260.10000000149], 'hit': ['0', '0', '0', 'B', 'B', '0', 'A', '0', 'A', 'A', '0', '0', 'C', '0', 'C']}","[['sea', 'unknown', 'sea', 'ship', 'sea'], ['sea', 'unknown', 'unknown', 'ship', 'unknown'], ['unknown', 'sea', 'sea', 'sea', 'unknown'], ['ship', 'ship', 'ship', 'unknown', 'unknown'], ['unknown', 'unknown', 'sea', 'ship', 'ship']]",15.0,10.0,0.0,7.0,,,,,,
,instructions,13,224767,0.0-5.0-1.3,61814837a8ff57d06daa2c8c,,6154c002d34228fc7357c6ef,6182caef316172232d8a5cbb,3016,346,True,False,71,1,1,"[{""page_index"":0,""viewing_time"":1629}]",1629.5,,,,,,,,,,,,,,,,,
,Battleships,14,249413,0.0-5.0-0.4,61814837a8ff57d06daa2c8c,,6154c002d34228fc7357c6ef,6182caef316172232d8a5cbb,3016,346,True,False,71,1,1,,,,,,non-pretend,"[['0', '0', '0', '0', '0'], ['0', '0', '0', '0', '0'], ['C', '0', '0', '0', 'A'], ['C', '0', 'B', '0', 'A'], ['0', '0', 'B', '0', 'A']]","{'i': [2, 1, 1, 3, 3, 4, 2, 4, 2, 1, 3, 3, 2, 1, 4], 'j': [1, 3, 2, 2, 3, 2, 2, 0, 0, 0, 0, 4, 4, 4, 4], 't': [1414.1000000014901, 2075, 2717.8000000044703, 3537, 5505, 6228.10000000149, 7173.39999999851, 10805.5, 12279.60000000149, 13405, 14309.5, 19690, 20474.70000000298, 21082.10000000149, 22247.39999999851], 'hit': ['0', '0', '0', 'B', '0', 'B', '0', '0', 'C', '0', 'C', 'A', 'A', '0', 'A']}","[['unknown', 'unknown', 'unknown', 'unknown', 'unknown'], ['sea', 'unknown', 'sea', 'sea', 'sea'], ['ship', 'sea', 'sea', 'unknown', 'ship'], ['ship', 'unknown', 'ship', 'sea', 'ship'], ['sea', 'unknown', 'ship', 'unknown', 'ship']]",15.0,10.0,0.0,5.0,,,,,,
,instructions,15,251210,0.0-5.0-1.4,61814837a8ff57d06daa2c8c,,6154c002d34228fc7357c6ef,6182caef316172232d8a5cbb,3016,346,True,False,71,1,1,"[{""page_index"":0,""viewing_time"":1794.6999999955297}]",1795.0999999940395,,,,,,,,,,,,,,,,,
,instructions,16,281829,0.0-6.0-0.0,61814837a8ff57d06daa2c8c,,6154c002d34228fc7357c6ef,6182caef316172232d8a5cbb,3016,346,True,False,71,1,1,"[{""page_index"":0,""viewing_time"":2137},{""page_index"":1,""viewing_time"":4373.70000000298},{""page_index"":2,""viewing_time"":7973.19999999553},{""page_index"":3,""viewing_time"":16132.39999999851}]",30616.70000000298,,,,,,,,,,,,,,,,,
,survey-multi-choice,17,287123,0.0-6.0-1.0,61814837a8ff57d06daa2c8c,,6154c002d34228fc7357c6ef,6182caef316172232d8a5cbb,3016,346,True,False,71,1,1,,5292.0,"{""Q0"":""... play the game as if the cross hints <b>were not there</b> so that I look like someone who <b>had no hints</b>""}",[0],1.0,multichoice_pretend,,,,,,,,,,,,,
,Battleships,18,309944,0.0-7.0,61814837a8ff57d06daa2c8c,,6154c002d34228fc7357c6ef,6182caef316172232d8a5cbb,3016,346,True,False,71,1,1,,,,,,,"[['0', '0', '0', '0'], ['0', '0', 'B', '0'], ['0', '0', 'B', '0'], ['A', 'A', '0', '0']]","{'i': [0, 0, 3, 3, 2, 3, 1, 1, 1, 2], 'j': [0, 3, 3, 0, 0, 1, 1, 2, 3, 2], 't': [6326.60000000149, 10217.90000000596, 11339.80000000447, 12613.30000000447, 13878.30000000447, 14895.60000000149, 16508.70000000298, 18479.10000000149, 19548.10000000149, 20428.90000000596], 'hit': ['0', '0', '0', 'A', '0', 'A', '0', 'B', '0', 'B']}","[['sea', 'unknown', 'unknown', 'sea'], ['unknown', 'sea', 'ship', 'sea'], ['sea', 'unknown', 'ship', 'unknown'], ['ship', 'ship', 'unknown', 'sea']]",10.0,6.0,1.0,,,,,,,
,instructions,19,322190,0.0-8.0,61814837a8ff57d06daa2c8c,,6154c002d34228fc7357c6ef,6182caef316172232d8a5cbb,3016,346,True,False,71,1,1,"[{""page_index"":0,""viewing_time"":12243.10000000149}]",12244.30000000447,,,,,,,,,,,,,,,,,
,Battleships,20,346948,0.0-9.0-0.0,61814837a8ff57d06daa2c8c,,6154c002d34228fc7357c6ef,6182caef316172232d8a5cbb,3016,346,True,False,71,1,1,,,,,,pretend,"[['0', 'A', '0', '0', '0'], ['0', 'A', '0', 'B', 'B'], ['0', 'A', '0', '0', '0'], ['0', '0', 'C', '0', '0'], ['0', '0', 'C', '0', '0']]","{'i': [0, 0, 4, 4, 2, 2, 3, 1, 2, 3, 1, 0, 0, 3, 3, 4, 1, 1], 'j': [0, 4, 4, 0, 2, 4, 0, 2, 1, 1, 1, 2, 1, 3, 2, 2, 3, 4], 't': [1603.3999999985099, 2485.60000000149, 3334.7000000029802, 4351.79999999702, 5136.70000000298, 5965.89999999851, 7020, 8525.60000000149, 9550.5, 10335, 11669.29999999702, 16719, 17370, 19219.60000000149, 20555.5, 21120.60000000149, 21884.89999999851, 22361.39999999851], 'hit': ['0', '0', '0', '0', '0', '0', '0', '0', 'A', '0', 'A', '0', 'A', '0', 'C', 'C', 'B', 'B']}","[['sea', 'ship', 'sea', 'unknown', 'sea'], ['unknown', 'ship', 'sea', 'ship', 'ship'], ['unknown', 'ship', 'sea', 'unknown', 'sea'], ['sea', 'sea', 'ship', 'sea', 'unknown'], ['sea', 'unknown', 'ship', 'unknown', 'sea']]",18.0,7.0,1.0,8.0,,,,,,
,instructions,21,350761,0.0-9.0-1.0,61814837a8ff57d06daa2c8c,,6154c002d34228fc7357c6ef,6182caef316172232d8a5cbb,3016,346,True,False,71,1,1,"[{""page_index"":0,""viewing_time"":3809.89999999851}]",3810.39999999851,,,,,,,,,,,,,,,,,
,Battleships,22,380250,0.0-9.0-0.1,61814837a8ff57d06daa2c8c,,6154c002d34228fc7357c6ef,6182caef316172232d8a5cbb,3016,346,True,False,71,1,1,,,,,,pretend,"[['0', '0', '0', '0', '0'], ['0', '0', '0', '0', 'A'], ['0', 'B', 'B', '0', 'A'], ['0', '0', '0', '0', 'A'], ['C', 'C', '0', '0', '0']]","{'i': [0, 0, 0, 4, 4, 3, 4, 4, 3, 2, 1, 2, 2, 1, 2, 3, 0, 3, 2, 1], 'j': [0, 3, 4, 4, 0, 0, 1, 2, 2, 2, 2, 3, 1, 1, 0, 3, 2, 4, 4, 4], 't': [1033.7999999970198, 1805.7000000029802, 2494.89999999851, 3407.7000000029802, 5093.5, 5773.89999999851, 7299.39999999851, 8283.60000000149, 11495.79999999702, 13057.20000000298, 13801.89999999851, 15855.39999999851, 16668.29999999702, 19002.20000000298, 20120.10000000149, 21337.39999999851, 24679.60000000149, 25496.5, 26281.29999999702, 27093.89999999851], 'hit': ['0', '0', '0', '0', 'C', '0', 'C', '0', '0', 'B', '0', '0', 'B', '0', '0', '0', '0', 'A', 'A', 'A']}","[['sea', 'unknown', 'sea', 'sea', 'sea'], ['unknown', 'sea', 'sea', 'unknown', 'ship'], ['sea', 'ship', 'ship', 'sea', 'ship'], ['sea', 'unknown', 'sea', 'sea', 'ship'], ['ship', 'ship', 'sea', 'unknown', 'sea']]",20.0,5.0,1.0,0.0,,,,,,
,instructions,23,383573,0.0-9.0-1.1,61814837a8ff57d06daa2c8c,,6154c002d34228fc7357c6ef,6182caef316172232d8a5cbb,3016,346,True,False,71,1,1,"[{""page_index"":0,""viewing_time"":3319.2000000029802}]",3319.60000000149,,,,,,,,,,,,,,,,,
,Battleships,24,412421,0.0-9.0-0.2,61814837a8ff57d06daa2c8c,,6154c002d34228fc7357c6ef,6182caef316172232d8a5cbb,3016,346,True,False,71,1,1,,,,,,pretend,"[['B', 'B', '0', '0', '0'], ['0', '0', '0', '0', '0'], ['A', 'A', 'A', '0', '0'], ['0', '0', '0', '0', '0'], ['0', '0', '0', 'C', 'C']]","{'i': [0, 1, 0, 0, 0, 4, 3, 4, 4, 4, 3, 2, 2, 3, 1, 2, 2], 'j': [0, 0, 1, 2, 4, 4, 4, 3, 2, 0, 0, 2, 3, 2, 2, 1, 0], 't': [1990.2000000029802, 3260.7000000029802, 4645.70000000298, 5567.20000000298, 7276, 9118.30000000447, 9935, 11888.20000000298, 14508, 16644.70000000298, 17758.90000000596, 18883.10000000149, 19708.70000000298, 21197.30000000447, 24441.10000000149, 25461.90000000596, 26458.10000000149], 'hit': ['B', '0', 'B', '0', '0', 'C', '0', 'C', '0', '0', '0', 'A', '0', '0', '0', 'A', 'A']}","[['ship', 'ship', 'sea', 'unknown', 'sea'], ['sea', 'unknown', 'sea', 'unknown', 'unknown'], ['ship', 'ship', 'ship', 'sea', 'unknown'], ['sea', 'unknown', 'sea', 'unknown', 'sea'], ['sea', 'unknown', 'sea', 'ship', 'ship']]",17.0,8.0,1.0,2.0,,,,,,
,instructions,25,413703,0.0-9.0-1.2,61814837a8ff57d06daa2c8c,,6154c002d34228fc7357c6ef,6182caef316172232d8a5cbb,3016,346,True,False,71,1,1,"[{""page_index"":0,""viewing_time"":1278.2999999970198}]",1278.6999999955297,,,,,,,,,,,,,,,,,
,Battleships,26,431713,0.0-9.0-0.3,61814837a8ff57d06daa2c8c,,6154c002d34228fc7357c6ef,6182caef316172232d8a5cbb,3016,346,True,False,71,1,1,,,,,,pretend,"[['C', 'C', '0', '0', '0'], ['0', '0', '0', '0', '0'], ['B', 'B', '0', 'A', '0'], ['0', '0', '0', 'A', '0'], ['0', '0', '0', 'A', '0']]","{'i': [0, 0, 0, 4, 4, 4, 4, 3, 2, 1, 1, 1, 2, 2, 3, 2, 2], 'j': [0, 1, 4, 4, 3, 2, 0, 0, 2, 2, 3, 4, 3, 4, 3, 1, 0], 't': [802.3000000044703, 1334.8000000044703, 2359.9000000059605, 3209.5, 3785.3000000044703, 5478.30000000447, 6583.9000000059605, 7633, 8226.10000000149, 9430.80000000447, 10615.60000000149, 11625.90000000596, 12459.5, 13309.30000000447, 14031.30000000447, 14760.5, 15609.90000000596], 'hit': ['C', 'C', '0', '0', 'A', '0', '0', '0', '0', '0', '0', '0', 'A', '0', 'A', 'B', 'B']}","[['ship', 'ship', 'unknown', 'unknown', 'sea'], ['unknown', 'unknown', 'sea', 'sea', 'sea'], ['ship', 'ship', 'sea', 'ship', 'sea'], ['sea', 'unknown', 'unknown', 'ship', 'unknown'], ['sea', 'unknown', 'sea', 'ship', 'sea']]",17.0,8.0,1.0,1.0,,,,,,
,instructions,27,432936,0.0-9.0-1.3,61814837a8ff57d06daa2c8c,,6154c002d34228fc7357c6ef,6182caef316172232d8a5cbb,3016,346,True,False,71,1,1,"[{""page_index"":0,""viewing_time"":1217.8000000044703}]",1218.2000000029802,,,,,,,,,,,,,,,,,
,Battleships,28,450748,0.0-9.0-0.4,61814837a8ff57d06daa2c8c,,6154c002d34228fc7357c6ef,6182caef316172232d8a5cbb,3016,346,True,False,71,1,1,,,,,,pretend,"[['0', '0', '0', 'B', '0'], ['0', '0', '0', 'B', '0'], ['C', 'C', '0', '0', 'A'], ['0', '0', '0', '0', 'A'], ['0', '0', '0', '0', 'A']]","{'i': [0, 0, 4, 4, 3, 2, 4, 2, 3, 2, 1, 2, 2, 3, 0, 1, 0], 'j': [0, 4, 4, 3, 4, 4, 0, 2, 2, 3, 2, 1, 0, 0, 2, 3, 3], 't': [736, 1443, 2233.5, 2856.2999999970198, 3976.60000000149, 4793.19999999553, 5880.69999999553, 7261.79999999702, 7874.29999999702, 8609.79999999702, 9627.79999999702, 10496.69999999553, 11286, 12182.89999999851, 13279.39999999851, 14644.39999999851, 15392.89999999851], 'hit': ['0', '0', 'A', '0', 'A', 'A', '0', '0', '0', '0', '0', 'C', 'C', '0', '0', 'B', 'B']}","[['sea', 'unknown', 'sea', 'ship', 'sea'], ['unknown', 'unknown', 'sea', 'ship', 'unknown'], ['ship', 'ship', 'sea', 'sea', 'ship'], ['sea', 'unknown', 'sea', 'unknown', 'ship'], ['sea', 'unknown', 'unknown', 'sea', 'ship']]",17.0,8.0,1.0,6.0,,,,,,
,instructions,29,452126,0.0-9.0-1.4,61814837a8ff57d06daa2c8c,,6154c002d34228fc7357c6ef,6182caef316172232d8a5cbb,3016,346,True,False,71,1,1,"[{""page_index"":0,""viewing_time"":1374.2000000029802}]",1374.7000000029802,,,,,,,,,,,,,,,,,
,instructions,30,459882,0.0-10.0,61814837a8ff57d06daa2c8c,,6154c002d34228fc7357c6ef,6182caef316172232d8a5cbb,3016,346,True,False,71,1,1,"[{""page_index"":0,""viewing_time"":5885.70000000298},{""page_index"":1,""viewing_time"":1866.1000000014901}]",7752.10000000149,,,,,,,,,,,,,,,,,
,Battleships_replay_2players,31,560012,0.0-11.0-0.0,61814837a8ff57d06daa2c8c,,6154c002d34228fc7357c6ef,6182caef316172232d8a5cbb,3016,346,True,False,71,1,1,,,,,1.0,judge,"[['0', '0', '0', '0', '0'], ['0', '0', '0', '0', 'A'], ['0', 'B', 'B', '0', 'A'], ['0', '0', '0', '0', 'A'], ['C', 'C', '0', '0', '0']]",,,,,,0.0,"['left', 'right']",right,330.0,333.0,right,left
,instructions,32,562904,0.0-11.0-1.0,61814837a8ff57d06daa2c8c,,6154c002d34228fc7357c6ef,6182caef316172232d8a5cbb,3016,346,True,False,71,1,1,"[{""page_index"":0,""viewing_time"":2886.3000000044703}]",2886.7000000029802,,,,,,,,,,,,,,,,,
,Battleships_replay_2players,33,660631,0.0-11.0-0.1,61814837a8ff57d06daa2c8c,,6154c002d34228fc7357c6ef,6182caef316172232d8a5cbb,3016,346,True,False,71,1,1,,,,,0.0,judge,"[['C', 'C', '0', '0', '0'], ['0', '0', '0', '0', '0'], ['B', 'B', '0', 'A', '0'], ['0', '0', '0', 'A', '0'], ['0', '0', '0', 'A', '0']]",,,,,,1.0,"['left', 'right']",right,334.0,337.0,left,right
,instructions,34,664704,0.0-11.0-1.1,61814837a8ff57d06daa2c8c,,6154c002d34228fc7357c6ef,6182caef316172232d8a5cbb,3016,346,True,False,71,1,1,"[{""page_index"":0,""viewing_time"":4070}]",4070.89999999851,,,,,,,,,,,,,,,,,
,Battleships_replay_2players,35,722151,0.0-11.0-0.2,61814837a8ff57d06daa2c8c,,6154c002d34228fc7357c6ef,6182caef316172232d8a5cbb,3016,346,True,False,71,1,1,,,,,1.0,judge,"[['B', 'B', '0', '0', '0'], ['0', '0', '0', '0', '0'], ['A', 'A', 'A', '0', '0'], ['0', '0', '0', '0', '0'], ['0', '0', '0', 'C', 'C']]",,,,,,2.0,"['left', 'right']",left,326.0,337.0,left,right
,instructions,36,725125,0.0-11.0-1.2,61814837a8ff57d06daa2c8c,,6154c002d34228fc7357c6ef,6182caef316172232d8a5cbb,3016,346,True,False,71,1,1,"[{""page_index"":0,""viewing_time"":2970.60000000149}]",2971.60000000149,,,,,,,,,,,,,,,,,
,Battleships_replay_2players,37,786427,0.0-11.0-0.3,61814837a8ff57d06daa2c8c,,6154c002d34228fc7357c6ef,6182caef316172232d8a5cbb,3016,346,True,False,71,1,1,,,,,0.0,judge,"[['0', '0', '0', '0', 'B'], ['A', 'A', 'A', '0', 'B'], ['0', '0', '0', 'C', '0'], ['0', '0', '0', 'C', '0'], ['0', '0', '0', '0', '0']]",,,,,,4.0,"['left', 'right', 'left']",right,330.0,333.0,left,right
,instructions,38,788114,0.0-11.0-1.3,61814837a8ff57d06daa2c8c,,6154c002d34228fc7357c6ef,6182caef316172232d8a5cbb,3016,346,True,False,71,1,1,"[{""page_index"":0,""viewing_time"":1684.2000000029802}]",1684.7000000029802,,,,,,,,,,,,,,,,,
,Battleships_replay_2players,39,828763,0.0-11.0-0.4,61814837a8ff57d06daa2c8c,,6154c002d34228fc7357c6ef,6182caef316172232d8a5cbb,3016,346,True,False,71,1,1,,,,,1.0,judge,"[['0', '0', '0', '0', 'B'], ['0', '0', '0', '0', 'B'], ['0', 'A', 'A', 'A', '0'], ['0', '0', '0', '0', '0'], ['0', '0', 'C', 'C', '0']]",,,,,,3.0,"['left', 'right']",right,331.0,328.0,right,left
,instructions,40,829916,0.0-11.0-1.4,61814837a8ff57d06daa2c8c,,6154c002d34228fc7357c6ef,6182caef316172232d8a5cbb,3016,346,True,False,71,1,1,"[{""page_index"":0,""viewing_time"":1150.8999999985099}]",1151.3000000044703,,,,,,,,,,,,,,,,,
,survey-text,41,858267,0.0-12.0,61814837a8ff57d06daa2c8c,,6154c002d34228fc7357c6ef,6182caef316172232d8a5cbb,3016,346,True,False,71,1,1,,28346.40000000596,"{""debrief"":""My strategy for pretending I didn't have any hints was thinking too much! I noticed those with hints ended up taking longer. ""}",,,,,,,,,,,,,,,,
,survey-text,42,879939,0.0-13.0,61814837a8ff57d06daa2c8c,,6154c002d34228fc7357c6ef,6182caef316172232d8a5cbb,3016,346,True,False,71,1,1,,21668.10000000149,"{""worker_comments"":""This was fun! I think it's interesting how people overthink the no hints.""}",,,,,,,,,,,,,,,,
,instructions,43,886743,0.0-14.0,61814837a8ff57d06daa2c8c,,6154c002d34228fc7357c6ef,6182caef316172232d8a5cbb,3016,346,True,False,71,1,1,"[{""page_index"":0,""viewing_time"":6801.69999999553}]",6802.0999999940395,,,,,,,,,,,,,,,,,
1.0,fullscreen,0,5327,0.0-0.0,61814837a8ff57d06daa2c8c,,6127841e4e0c7416a3333c2b,6182caf0acfc3f68426d3eff,3016,347,False,False,62,1,1,,,,,,,,,,,,,,,,,,,
,instructions,1,46891,0.0-1.0-0.0,61814837a8ff57d06daa2c8c,,6127841e4e0c7416a3333c2b,6182caf0acfc3f68426d3eff,3016,347,False,False,62,1,1,"[{""page_index"":0,""viewing_time"":7588.409999996657},{""page_index"":1,""viewing_time"":3594.790000002831},{""page_index"":2,""viewing_time"":15756.775000016205},{""page_index"":3,""viewing_time"":14621.659999975236}]",41562.529999995604,,,,,,,,,,,,,,,,,
,survey-multi-choice,2,51359,0.0-1.0-1.0,61814837a8ff57d06daa2c8c,,6127841e4e0c7416a3333c2b,6182caf0acfc3f68426d3eff,3016,347,False,False,62,1,1,,4465.849999978673,"{""Q0"":""... sink all ships with as <b>few clicks</b> as possible""}",[0],1.0,multichoice_nonpretend,,,,,,,,,,,,,
,instructions,3,54594,0.0-2.0,61814837a8ff57d06daa2c8c,,6127841e4e0c7416a3333c2b,6182caf0acfc3f68426d3eff,3016,347,False,False,62,1,1,"[{""page_index"":0,""viewing_time"":3233.334999997169}]",3233.6099999956787,,,,,,,,,,,,,,,,,
,Battleships,4,71658,0.0-3.0,61814837a8ff57d06daa2c8c,,6127841e4e0c7416a3333c2b,6182caf0acfc3f68426d3eff,3016,347,False,False,62,1,1,,,,,,,"[['0', '0', '0', '0'], ['A', '0', 'B', 'B'], ['A', '0', '0', '0'], ['0', '0', '0', '0']]","{'i': [2, 2, 3, 1, 0, 0, 1, 1], 'j': [0, 1, 0, 0, 0, 3, 2, 3], 't': [1639.2650000052527, 4401.1500000196975, 5548.225000005914, 7244.544999994105, 10065.21500000963, 12617.490000004182, 13602.745000011055, 14948.78500001505], 'hit': ['A', '0', '0', 'A', '0', '0', 'B', 'B']}","[['sea', 'unknown', 'unknown', 'sea'], ['ship', 'unknown', 'ship', 'ship'], ['ship', 'sea', 'unknown', 'unknown'], ['sea', 'unknown', 'unknown', 'unknown']]",8.0,8.0,0.0,,,,,,,
,instructions,5,112740,0.0-4.0-0.0,61814837a8ff57d06daa2c8c,,6127841e4e0c7416a3333c2b,6182caf0acfc3f68426d3eff,3016,347,False,False,62,1,1,"[{""page_index"":0,""viewing_time"":6729.43999999552},{""page_index"":1,""viewing_time"":10176.0850000137},{""page_index"":2,""viewing_time"":8559.795000008307},{""page_index"":3,""viewing_time"":15616.274999978486}]",41081.910000008065,,,,,,,,,,,,,,,,,
,survey-multi-choice,6,119948,0.0-4.0-1.0,61814837a8ff57d06daa2c8c,,6127841e4e0c7416a3333c2b,6182caf0acfc3f68426d3eff,3016,347,False,False,62,1,1,,7206.174999999348,"{""Q0"":""... play the game as if the cross hints <b>were not there</b> so that I look like someone who <b>had no hints</b>""}",[0],1.0,multichoice_pretend,,,,,,,,,,,,,
,Battleships,7,140250,0.0-5.0,61814837a8ff57d06daa2c8c,,6127841e4e0c7416a3333c2b,6182caf0acfc3f68426d3eff,3016,347,False,False,62,1,1,,,,,,,"[['0', '0', '0', '0'], ['0', '0', 'B', '0'], ['0', '0', 'B', '0'], ['A', 'A', '0', '0']]","{'i': [0, 3, 2, 3, 3, 0, 1, 2], 'j': [3, 0, 0, 1, 2, 0, 2, 2], 't': [5461.589999991702, 7872.139999992214, 9609.729999996489, 11059.269999997923, 12812.884999992093, 14846.625000005588, 17265.47000001301, 18210.820000007516], 'hit': ['0', 'A', '0', 'A', '0', '0', 'B', 'B']}","[['sea', 'unknown', 'unknown', 'sea'], ['unknown', 'unknown', 'ship', 'unknown'], ['sea', 'unknown', 'ship', 'unknown'], ['ship', 'ship', 'sea', 'unknown']]",8.0,8.0,1.0,,,,,,,
,instructions,8,152495,0.0-6.0,61814837a8ff57d06daa2c8c,,6127841e4e0c7416a3333c2b,6182caf0acfc3f68426d3eff,3016,347,False,False,62,1,1,"[{""page_index"":0,""viewing_time"":12245.309999998426}]",12245.61499999254,,,,,,,,,,,,,,,,,
,Battleships,9,184879,0.0-7.0-0.0,61814837a8ff57d06daa2c8c,,6127841e4e0c7416a3333c2b,6182caf0acfc3f68426d3eff,3016,347,False,False,62,1,1,,,,,,pretend,"[['0', '0', '0', '0', '0'], ['0', '0', '0', '0', '0'], ['C', '0', '0', '0', 'A'], ['C', '0', 'B', '0', 'A'], ['0', '0', 'B', '0', 'A']]","{'i': [4, 0, 1, 2, 3, 0, 4, 4, 3, 2, 2, 3, 4], 'j': [0, 4, 1, 0, 0, 0, 4, 3, 4, 2, 4, 2, 2], 't': [1786.870000010822, 3482.560000004014, 5236.975000007078, 7823.150000011083, 8975.964999990538, 11980.804999999236, 15238.779999985127, 16199.59000000381, 17730.925000010757, 21573.615000001155, 22782.145000004675, 26097.75499999523, 28499.810000008438], 'hit': ['0', '0', '0', 'C', 'C', '0', 'A', '0', 'A', '0', 'A', 'B', 'B']}","[['sea', 'unknown', 'unknown', 'unknown', 'sea'], ['unknown', 'sea', 'unknown', 'unknown', 'unknown'], ['ship', 'unknown', 'sea', 'unknown', 'ship'], ['ship', 'unknown', 'ship', 'unknown', 'ship'], ['sea', 'unknown', 'ship', 'sea', 'ship']]",13.0,12.0,1.0,5.0,,,,,,
,instructions,10,208495,0.0-7.0-1.0,61814837a8ff57d06daa2c8c,,6127841e4e0c7416a3333c2b,6182caf0acfc3f68426d3eff,3016,347,False,False,62,1,1,"[{""page_index"":0,""viewing_time"":23612.559999979567}]",23612.854999984847,,,,,,,,,,,,,,,,,
,Battleships,11,236397,0.0-7.0-0.1,61814837a8ff57d06daa2c8c,,6127841e4e0c7416a3333c2b,6182caf0acfc3f68426d3eff,3016,347,False,False,62,1,1,,,,,,pretend,"[['C', 'C', '0', '0', '0'], ['0', '0', '0', '0', '0'], ['B', 'B', '0', 'A', '0'], ['0', '0', '0', 'A', '0'], ['0', '0', '0', 'A', '0']]","{'i': [4, 0, 0, 1, 0, 4, 1, 3, 2, 4, 1, 2, 2], 'j': [0, 4, 0, 0, 1, 4, 2, 3, 3, 3, 4, 0, 1], 't': [2936.7199999978766, 5442.779999983031, 7284.119999996619, 9135.775000002468, 10030.715000000782, 11625.975000002654, 14963.409999996657, 16877.01999998535, 18078.244999982417, 19832.534999994095, 23580.805000005057, 25192.494999995688, 25814.429999998538], 'hit': ['0', '0', 'C', '0', 'C', '0', '0', 'A', 'A', 'A', '0', 'B', 'B']}","[['ship', 'ship', 'unknown', 'unknown', 'sea'], ['sea', 'unknown', 'sea', 'unknown', 'sea'], ['ship', 'ship', 'unknown', 'ship', 'unknown'], ['unknown', 'unknown', 'unknown', 'ship', 'unknown'], ['sea', 'unknown', 'unknown', 'ship', 'sea']]",13.0,12.0,1.0,1.0,,,,,,
,instructions,12,243911,0.0-7.0-1.1,61814837a8ff57d06daa2c8c,,6127841e4e0c7416a3333c2b,6182caf0acfc3f68426d3eff,3016,347,False,False,62,1,1,"[{""page_index"":0,""viewing_time"":7512.700000021141}]",7512.985000008484,,,,,,,,,,,,,,,,,
,Battleships,13,270284,0.0-7.0-0.2,61814837a8ff57d06daa2c8c,,6127841e4e0c7416a3333c2b,6182caf0acfc3f68426d3eff,3016,347,False,False,62,1,1,,,,,,pretend,"[['0', '0', '0', 'C', '0'], ['0', '0', '0', 'C', '0'], ['0', '0', '0', '0', '0'], ['A', 'A', 'A', '0', '0'], ['0', '0', '0', 'B', 'B']]","{'i': [4, 3, 4, 0, 4, 0, 2, 1, 2, 0, 3, 2, 3, 3], 'j': [4, 4, 3, 0, 0, 4, 1, 3, 3, 3, 0, 0, 1, 2], 't': [2970.390000002226, 3930.709999985993, 5020.480000006501, 6620.2399999892805, 9375.67000000854, 10769.765000004554, 12097.529999999097, 13626.480000006268, 14498.939999990398, 15437.035000009928, 21030.03500000341, 22014.744999993127, 23186.82999999146, 24272.65999998781], 'hit': ['B', '0', 'B', '0', '0', '0', '0', 'C', '0', 'C', 'A', '0', 'A', 'A']}","[['sea', 'unknown', 'unknown', 'ship', 'sea'], ['unknown', 'unknown', 'unknown', 'ship', 'unknown'], ['sea', 'sea', 'unknown', 'sea', 'unknown'], ['ship', 'ship', 'ship', 'unknown', 'sea'], ['sea', 'unknown', 'unknown', 'ship', 'ship']]",14.0,11.0,1.0,7.0,,,,,,
,instructions,14,275051,0.0-7.0-1.2,61814837a8ff57d06daa2c8c,,6127841e4e0c7416a3333c2b,6182caf0acfc3f68426d3eff,3016,347,False,False,62,1,1,"[{""page_index"":0,""viewing_time"":4764.850000006845}]",4765.145000012126,,,,,,,,,,,,,,,,,
,Battleships,15,298151,0.0-7.0-0.3,61814837a8ff57d06daa2c8c,,6127841e4e0c7416a3333c2b,6182caf0acfc3f68426d3eff,3016,347,False,False,62,1,1,,,,,,pretend,"[['0', '0', '0', '0', '0'], ['0', '0', '0', '0', 'A'], ['0', 'B', 'B', '0', 'A'], ['0', '0', '0', '0', 'A'], ['C', 'C', '0', '0', '0']]","{'i': [0, 0, 1, 4, 3, 4, 0, 4, 2, 2, 2, 1, 3, 1, 2, 3], 'j': [0, 1, 0, 0, 0, 1, 4, 4, 2, 3, 1, 2, 2, 4, 4, 4], 't': [2786.135000002105, 3897.885000013048, 4746.78000001586, 6092.109999997774, 7118.864999996731, 7893.465000001015, 8926.485000003595, 10592.08000000217, 12356.545000016922, 13190.185000014026, 14099.640000000363, 16493.580000009388, 17647.385000018403, 18923.64500000258, 20065.434999996796, 21018.310000014026], 'hit': ['0', '0', '0', 'C', '0', 'C', '0', '0', 'B', '0', 'B', '0', '0', 'A', 'A', 'A']}","[['sea', 'sea', 'unknown', 'unknown', 'sea'], ['sea', 'unknown', 'sea', 'unknown', 'ship'], ['unknown', 'ship', 'ship', 'sea', 'ship'], ['sea', 'unknown', 'sea', 'unknown', 'ship'], ['ship', 'ship', 'unknown', 'unknown', 'sea']]",16.0,9.0,1.0,0.0,,,,,,
,instructions,16,299866,0.0-7.0-1.3,61814837a8ff57d06daa2c8c,,6127841e4e0c7416a3333c2b,6182caf0acfc3f68426d3eff,3016,347,False,False,62,1,1,"[{""page_index"":0,""viewing_time"":1713.5050000215415}]",1713.7849999999162,,,,,,,,,,,,,,,,,
,Battleships,17,321685,0.0-7.0-0.4,61814837a8ff57d06daa2c8c,,6127841e4e0c7416a3333c2b,6182caf0acfc3f68426d3eff,3016,347,False,False,62,1,1,,,,,,pretend,"[['0', '0', '0', '0', 'B'], ['0', '0', '0', '0', 'B'], ['0', 'A', 'A', 'A', '0'], ['0', '0', '0', '0', '0'], ['0', '0', 'C', 'C', '0']]","{'i': [0, 4, 4, 0, 1, 0, 1, 2, 2, 1, 2, 2, 3, 4, 4], 'j': [0, 0, 4, 4, 4, 3, 0, 0, 2, 3, 3, 1, 2, 2, 3], 't': [1166.1149999999907, 2304.15000001085, 4569.8149999952875, 6411.045000015292, 7099.7300000162795, 8149.399999994785, 10071.140000014566, 10929.260000004433, 13098.68500000448, 14180.925000022398, 15203.15000001574, 16067.785000021104, 18238.44499999541, 18991.065000009257, 19715.05500000785], 'hit': ['0', '0', '0', 'B', 'B', '0', '0', '0', 'A', '0', 'A', 'A', '0', 'C', 'C']}","[['sea', 'unknown', 'unknown', 'sea', 'ship'], ['sea', 'unknown', 'unknown', 'sea', 'ship'], ['sea', 'ship', 'ship', 'ship', 'unknown'], ['unknown', 'unknown', 'sea', 'unknown', 'unknown'], ['sea', 'unknown', 'ship', 'ship', 'sea']]",15.0,10.0,1.0,3.0,,,,,,
,instructions,18,332596,0.0-7.0-1.4,61814837a8ff57d06daa2c8c,,6127841e4e0c7416a3333c2b,6182caf0acfc3f68426d3eff,3016,347,False,False,62,1,1,"[{""page_index"":0,""viewing_time"":10910.310000006575}]",10910.590000014054,,,,,,,,,,,,,,,,,
,instructions,19,342089,0.0-8.0,61814837a8ff57d06daa2c8c,,6127841e4e0c7416a3333c2b,6182caf0acfc3f68426d3eff,3016,347,False,False,62,1,1,"[{""page_index"":0,""viewing_time"":9491.834999993443}]",9492.150000005495,,,,,,,,,,,,,,,,,
,Battleships,20,375782,0.0-9.0-0.0,61814837a8ff57d06daa2c8c,,6127841e4e0c7416a3333c2b,6182caf0acfc3f68426d3eff,3016,347,False,False,62,1,1,,,,,,non-pretend,"[['0', 'A', '0', '0', '0'], ['0', 'A', '0', 'B', 'B'], ['0', 'A', '0', '0', '0'], ['0', '0', 'C', '0', '0'], ['0', '0', 'C', '0', '0']]","{'i': [0, 0, 4, 4, 2, 2, 1, 1, 1, 3, 3, 3, 4, 0, 0, 1, 2], 'j': [0, 4, 4, 0, 2, 0, 3, 4, 2, 2, 1, 3, 2, 1, 2, 1, 1], 't': [1469.7999999916647, 2638.8649999862537, 3915.500000002794, 5041.049999999814, 6026.79000000353, 7803.82999998983, 9077.315000002272, 10405.664999998407, 12272.245000000112, 13656.775000010384, 15948.455000005197, 16820.85499999812, 18062.390000006417, 29237.885000009555, 29782.589999987977, 30681.609999999637, 31599.58999999799], 'hit': ['0', '0', '0', '0', '0', '0', 'B', 'B', '0', 'C', '0', '0', 'C', 'A', '0', 'A', 'A']}","[['sea', 'ship', 'sea', 'unknown', 'sea'], ['unknown', 'ship', 'sea', 'ship', 'ship'], ['sea', 'ship', 'sea', 'unknown', 'unknown'], ['unknown', 'sea', 'ship', 'sea', 'unknown'], ['sea', 'unknown', 'ship', 'unknown', 'sea']]",17.0,8.0,0.0,8.0,,,,,,
,instructions,21,391323,0.0-9.0-1.0,61814837a8ff57d06daa2c8c,,6127841e4e0c7416a3333c2b,6182caf0acfc3f68426d3eff,3016,347,False,False,62,1,1,"[{""page_index"":0,""viewing_time"":15540.110000001732}]",15540.404999977909,,,,,,,,,,,,,,,,,
,Battleships,22,410114,0.0-9.0-0.1,61814837a8ff57d06daa2c8c,,6127841e4e0c7416a3333c2b,6182caf0acfc3f68426d3eff,3016,347,False,False,62,1,1,,,,,,non-pretend,"[['0', '0', '0', 'B', '0'], ['0', '0', '0', 'B', '0'], ['C', 'C', '0', '0', 'A'], ['0', '0', '0', '0', 'A'], ['0', '0', '0', '0', 'A']]","{'i': [0, 0, 4, 4, 4, 3, 2, 2, 2, 2, 0, 3, 4, 1, 1, 1, 2, 0], 'j': [4, 0, 0, 4, 3, 4, 4, 1, 0, 2, 2, 2, 1, 3, 2, 4, 3, 3], 't': [673.0199999874458, 1553.8599999854341, 2244.9149999883957, 2898.929999995744, 4084.514999995008, 4573.145000002114, 5421.384999994189, 7119.024999992689, 7951.785000012023, 9314.164999988861, 10723.265000007814, 11716.90500000841, 13005.57999999728, 13653.714999993099, 14342.310000007274, 14927.035000000615, 15633.904999995138, 16667.794999986654], 'hit': ['0', '0', '0', 'A', '0', 'A', 'A', 'C', 'C', '0', '0', '0', '0', 'B', '0', '0', '0', 'B']}","[['sea', 'unknown', 'sea', 'ship', 'sea'], ['unknown', 'unknown', 'sea', 'ship', 'sea'], ['ship', 'ship', 'sea', 'sea', 'ship'], ['unknown', 'unknown', 'sea', 'unknown', 'ship'], ['sea', 'sea', 'unknown', 'sea', 'ship']]",18.0,7.0,0.0,6.0,,,,,,
,instructions,23,426275,0.0-9.0-1.1,61814837a8ff57d06daa2c8c,,6127841e4e0c7416a3333c2b,6182caf0acfc3f68426d3eff,3016,347,False,False,62,1,1,"[{""page_index"":0,""viewing_time"":16159.815000020899}]",16160.145000001648,,,,,,,,,,,,,,,,,
,Battleships,24,442802,0.0-9.0-0.2,61814837a8ff57d06daa2c8c,,6127841e4e0c7416a3333c2b,6182caf0acfc3f68426d3eff,3016,347,False,False,62,1,1,,,,,,non-pretend,"[['B', 'B', '0', '0', '0'], ['0', '0', '0', '0', '0'], ['A', 'A', 'A', '0', '0'], ['0', '0', '0', '0', '0'], ['0', '0', '0', 'C', 'C']]","{'i': [0, 0, 0, 0, 4, 2, 2, 2, 2, 4, 4], 'j': [0, 1, 2, 4, 0, 2, 3, 1, 0, 4, 3], 't': [1472.1649999846704, 2423.9349999988917, 3753.1749999907333, 4714.724999997998, 6149.019999982556, 7141.089999990072, 8014.295000000857, 8854.389999993145, 10153.814999997849, 12114.13000000175, 13355.219999997644], 'hit': ['B', 'B', '0', '0', '0', 'A', '0', 'A', 'A', 'C', 'C']}","[['ship', 'ship', 'sea', 'unknown', 'sea'], ['unknown', 'unknown', 'unknown', 'unknown', 'unknown'], ['ship', 'ship', 'ship', 'sea', 'unknown'], ['unknown', 'unknown', 'unknown', 'unknown', 'unknown'], ['sea', 'unknown', 'unknown', 'ship', 'ship']]",11.0,14.0,0.0,2.0,,,,,,
,instructions,25,449209,0.0-9.0-1.2,61814837a8ff57d06daa2c8c,,6127841e4e0c7416a3333c2b,6182caf0acfc3f68426d3eff,3016,347,False,False,62,1,1,"[{""page_index"":0,""viewing_time"":6405.7750000210945}]",6406.035000021802,,,,,,,,,,,,,,,,,
,Battleships,26,476255,0.0-9.0-0.3,61814837a8ff57d06daa2c8c,,6127841e4e0c7416a3333c2b,6182caf0acfc3f68426d3eff,3016,347,False,False,62,1,1,,,,,,non-pretend,"[['0', '0', '0', '0', 'B'], ['A', 'A', 'A', '0', 'B'], ['0', '0', '0', 'C', '0'], ['0', '0', '0', 'C', '0'], ['0', '0', '0', '0', '0']]","{'i': [0, 0, 0, 1, 2, 4, 4, 2, 3, 1, 1, 1, 3, 4, 4, 1, 0, 2, 3, 3, 2], 'j': [0, 4, 3, 4, 4, 4, 0, 2, 1, 1, 0, 2, 2, 2, 3, 3, 2, 0, 3, 4, 3], 't': [1190.5099999858066, 2340.460000006715, 3373.7200000032317, 4077.2799999976996, 5119.0999999816995, 6343.934999982594, 7360.855000006268, 8361.994999984745, 9410.650000005262, 10628.204999986337, 11885.184999991907, 13566.85999999172, 15616.305000003194, 16370.804999984102, 17562.424999981886, 18467.290000000503, 20029.19999998994, 21493.459999997867, 22706.139999994775, 23768.244999984745, 24956.254999997327], 'hit': ['0', 'B', '0', 'B', '0', '0', '0', '0', '0', 'A', 'A', 'A', '0', '0', '0', '0', '0', '0', 'C', '0', 'C']}","[['sea', 'unknown', 'sea', 'sea', 'ship'], ['ship', 'ship', 'ship', 'sea', 'ship'], ['sea', 'unknown', 'sea', 'ship', 'sea'], ['unknown', 'sea', 'sea', 'ship', 'sea'], ['sea', 'unknown', 'sea', 'sea', 'sea']]",21.0,4.0,0.0,4.0,,,,,,
,instructions,27,478570,0.0-9.0-1.3,61814837a8ff57d06daa2c8c,,6127841e4e0c7416a3333c2b,6182caf0acfc3f68426d3eff,3016,347,False,False,62,1,1,"[{""page_index"":0,""viewing_time"":2314.189999975497}]",2314.4800000009127,,,,,,,,,,,,,,,,,
,Battleships,28,502476,0.0-9.0-0.4,61814837a8ff57d06daa2c8c,,6127841e4e0c7416a3333c2b,6182caf0acfc3f68426d3eff,3016,347,False,False,62,1,1,,,,,,non-pretend,"[['C', 'C', '0', '0', '0'], ['0', '0', '0', '0', '0'], ['B', 'B', '0', 'A', '0'], ['0', '0', '0', 'A', '0'], ['0', '0', '0', 'A', '0']]","{'i': [0, 1, 0, 0, 0, 4, 4, 2, 3, 2, 3, 2, 1, 3, 4, 2], 'j': [0, 0, 1, 2, 4, 4, 0, 2, 2, 0, 0, 1, 3, 3, 3, 3], 't': [6803.384999977425, 7924.294999975245, 8535.93999997247, 9631.649999995716, 10438.534999993863, 11408.264999976382, 12248.574999975972, 13203.334999998333, 14036.564999987604, 14827.369999984512, 16125.294999976177, 16725.674999994226, 17903.169999975944, 19170.149999990826, 21073.034999979427, 21809.994999988703], 'hit': ['C', '0', 'C', '0', '0', '0', '0', '0', '0', 'B', '0', 'B', '0', 'A', 'A', 'A']}","[['ship', 'ship', 'sea', 'unknown', 'sea'], ['sea', 'unknown', 'unknown', 'sea', 'unknown'], ['ship', 'ship', 'sea', 'ship', 'unknown'], ['sea', 'unknown', 'sea', 'ship', 'unknown'], ['sea', 'unknown', 'unknown', 'ship', 'sea']]",16.0,9.0,0.0,1.0,,,,,,
,instructions,29,507089,0.0-9.0-1.4,61814837a8ff57d06daa2c8c,,6127841e4e0c7416a3333c2b,6182caf0acfc3f68426d3eff,3016,347,False,False,62,1,1,"[{""page_index"":0,""viewing_time"":4611.979999986943}]",4612.234999978682,,,,,,,,,,,,,,,,,
,instructions,30,560746,0.0-10.0,61814837a8ff57d06daa2c8c,,6127841e4e0c7416a3333c2b,6182caf0acfc3f68426d3eff,3016,347,False,False,62,1,1,"[{""page_index"":0,""viewing_time"":6177.395000006072},{""page_index"":1,""viewing_time"":47481.480000016745}]",53659.13000001456,,,,,,,,,,,,,,,,,
,Battleships_replay_2players,31,619883,0.0-11.0-0.0,61814837a8ff57d06daa2c8c,,6127841e4e0c7416a3333c2b,6182caf0acfc3f68426d3eff,3016,347,False,False,62,1,1,,,,,1.0,judge,"[['C', 'C', '0', '0', '0'], ['0', '0', '0', '0', '0'], ['B', 'B', '0', 'A', '0'], ['0', '0', '0', 'A', '0'], ['0', '0', '0', 'A', '0']]",,,,,,1.0,"['left', 'right']",right,329.0,333.0,right,left
,instructions,32,633132,0.0-11.0-1.0,61814837a8ff57d06daa2c8c,,6127841e4e0c7416a3333c2b,6182caf0acfc3f68426d3eff,3016,347,False,False,62,1,1,"[{""page_index"":0,""viewing_time"":13245.470000023488}]",13245.705000008456,,,,,,,,,,,,,,,,,
,Battleships_replay_2players,33,699842,0.0-11.0-0.1,61814837a8ff57d06daa2c8c,,6127841e4e0c7416a3333c2b,6182caf0acfc3f68426d3eff,3016,347,False,False,62,1,1,,,,,0.0,judge,"[['0', '0', '0', '0', '0'], ['0', '0', '0', '0', 'A'], ['0', 'B', 'B', '0', 'A'], ['0', '0', '0', '0', 'A'], ['C', 'C', '0', '0', '0']]",,,,,,0.0,"['left', 'right']",right,328.0,333.0,left,right
,instructions,34,703695,0.0-11.0-1.1,61814837a8ff57d06daa2c8c,,6127841e4e0c7416a3333c2b,6182caf0acfc3f68426d3eff,3016,347,False,False,62,1,1,"[{""page_index"":0,""viewing_time"":3851.1299999954645}]",3851.3550000207033,,,,,,,,,,,,,,,,,
,Battleships_replay_2players,35,798446,0.0-11.0-0.2,61814837a8ff57d06daa2c8c,,6127841e4e0c7416a3333c2b,6182caf0acfc3f68426d3eff,3016,347,False,False,62,1,1,,,,,0.0,judge,"[['0', '0', '0', '0', 'B'], ['0', '0', '0', '0', 'B'], ['0', 'A', 'A', 'A', '0'], ['0', '0', '0', '0', '0'], ['0', '0', 'C', 'C', '0']]",,,,,,3.0,"['left', 'right']",left,330.0,328.0,right,left
,instructions,36,800207,0.0-11.0-1.2,61814837a8ff57d06daa2c8c,,6127841e4e0c7416a3333c2b,6182caf0acfc3f68426d3eff,3016,347,False,False,62,1,1,"[{""page_index"":0,""viewing_time"":1759.9549999868032}]",1760.214999987511,,,,,,,,,,,,,,,,,
,Battleships_replay_2players,37,888880,0.0-11.0-0.3,61814837a8ff57d06daa2c8c,,6127841e4e0c7416a3333c2b,6182caf0acfc3f68426d3eff,3016,347,False,False,62,1,1,,,,,1.0,judge,"[['0', '0', '0', '0', 'B'], ['A', 'A', 'A', '0', 'B'], ['0', '0', '0', 'C', '0'], ['0', '0', '0', 'C', '0'], ['0', '0', '0', '0', '0']]",,,,,,4.0,"['left', 'right']",left,332.0,327.0,left,right
,instructions,38,892028,0.0-11.0-1.3,61814837a8ff57d06daa2c8c,,6127841e4e0c7416a3333c2b,6182caf0acfc3f68426d3eff,3016,347,False,False,62,1,1,"[{""page_index"":0,""viewing_time"":3146.3799999910407}]",3146.630000002915,,,,,,,,,,,,,,,,,
,Battleships_replay_2players,39,949895,0.0-11.0-0.4,61814837a8ff57d06daa2c8c,,6127841e4e0c7416a3333c2b,6182caf0acfc3f68426d3eff,3016,347,False,False,62,1,1,,,,,0.0,judge,"[['B', 'B', '0', '0', '0'], ['0', '0', '0', '0', '0'], ['A', 'A', 'A', '0', '0'], ['0', '0', '0', '0', '0'], ['0', '0', '0', 'C', 'C']]",,,,,,2.0,"['left', 'right']",left,326.0,337.0,right,left
,instructions,40,951450,0.0-11.0-1.4,61814837a8ff57d06daa2c8c,,6127841e4e0c7416a3333c2b,6182caf0acfc3f68426d3eff,3016,347,False,False,62,1,1,"[{""page_index"":0,""viewing_time"":1553.1750000081956}]",1553.4200000111014,,,,,,,,,,,,,,,,,
,survey-text,41,1040112,0.0-12.0,61814837a8ff57d06daa2c8c,,6127841e4e0c7416a3333c2b,6182caf0acfc3f68426d3eff,3016,347,False,False,62,1,1,,88662.49499999685,"{""debrief"":""i tried to pretend i didnt see the hints, in regards to telling between knowing if the players had hints i was seeing how long they take to click a square, i felt that the ones clicking the squares faster had the hints""}",,,,,,,,,,,,,,,,
,survey-text,42,1048023,0.0-13.0,61814837a8ff57d06daa2c8c,,6127841e4e0c7416a3333c2b,6182caf0acfc3f68426d3eff,3016,347,False,False,62,1,1,,7909.610000002431,"{""worker_comments"":""thank you""}",,,,,,,,,,,,,,,,
,instructions,43,1055315,0.0-14.0,61814837a8ff57d06daa2c8c,,6127841e4e0c7416a3333c2b,6182caf0acfc3f68426d3eff,3016,347,False,False,62,1,1,"[{""page_index"":0,""viewing_time"":7289.8500000010245}]",7290.104999992764,,,,,,,,,,,,,,,,,
1.0,fullscreen,0,7740,0.0-0.0,61814837a8ff57d06daa2c8c,,603f6ea3c439b514c173633d,6182caef7d90cbfe4b3ce9ba,3016,345,False,True,71,1,1,,,,,,,,,,,,,,,,,,,
,instructions,1,48386,0.0-1.0-0.0,61814837a8ff57d06daa2c8c,,603f6ea3c439b514c173633d,6182caef7d90cbfe4b3ce9ba,3016,345,False,True,71,1,1,"[{""page_index"":0,""viewing_time"":9753.400000035763},{""page_index"":1,""viewing_time"":7549.899999976158},{""page_index"":2,""viewing_time"":10033.100000023842},{""page_index"":3,""viewing_time"":13306.699999988079}]",40643.80000001192,,,,,,,,,,,,,,,,,
,survey-multi-choice,2,75908,0.0-1.0-1.0,61814837a8ff57d06daa2c8c,,603f6ea3c439b514c173633d,6182caef7d90cbfe4b3ce9ba,3016,345,False,True,71,1,1,,27520.600000023842,"{""Q0"":""... sink all ships with as <b>few clicks</b> as possible""}",[0],1.0,multichoice_nonpretend,,,,,,,,,,,,,
,instructions,3,79782,0.0-2.0,61814837a8ff57d06daa2c8c,,603f6ea3c439b514c173633d,6182caef7d90cbfe4b3ce9ba,3016,345,False,True,71,1,1,"[{""page_index"":0,""viewing_time"":3873.100000023842}]",3873.300000011921,,,,,,,,,,,,,,,,,
,Battleships,4,96775,0.0-3.0,61814837a8ff57d06daa2c8c,,603f6ea3c439b514c173633d,6182caef7d90cbfe4b3ce9ba,3016,345,False,True,71,1,1,,,,,,,"[['0', '0', '0', '0'], ['A', '0', 'B', 'B'], ['A', '0', '0', '0'], ['0', '0', '0', '0']]","{'i': [1, 1, 1, 2, 0, 3, 0, 3, 1, 0, 2], 'j': [1, 2, 3, 1, 1, 3, 3, 0, 0, 0, 0], 't': [2553, 3563.800000011921, 5796.900000035763, 8149.800000011921, 9151.800000011921, 9967.900000035763, 11238.800000011921, 12041.100000023842, 12871.800000011921, 13987.900000035763, 14908.800000011921], 'hit': ['0', 'B', 'B', '0', '0', '0', '0', '0', 'A', '0', 'A']}","[['sea', 'sea', 'unknown', 'sea'], ['ship', 'sea', 'ship', 'ship'], ['ship', 'sea', 'unknown', 'unknown'], ['sea', 'unknown', 'unknown', 'sea']]",11.0,5.0,0.0,,,,,,,
,instructions,5,145848,0.0-4.0-0.0,61814837a8ff57d06daa2c8c,,603f6ea3c439b514c173633d,6182caef7d90cbfe4b3ce9ba,3016,345,False,True,71,1,1,"[{""page_index"":0,""viewing_time"":3638.7999999523163},{""page_index"":1,""viewing_time"":7654.900000035763},{""page_index"":2,""viewing_time"":14829.899999976158},{""page_index"":3,""viewing_time"":22947.100000023842}]",49070.89999997616,,,,,,,,,,,,,,,,,
,survey-multi-choice,6,155722,0.0-4.0-1.0,61814837a8ff57d06daa2c8c,,603f6ea3c439b514c173633d,6182caef7d90cbfe4b3ce9ba,3016,345,False,True,71,1,1,,9872.899999976158,"{""Q0"":""... play the game as if the cross hints <b>were not there</b> so that I look like someone who <b>had no hints</b>""}",[0],1.0,multichoice_pretend,,,,,,,,,,,,,
,Battleships,7,186581,0.0-5.0,61814837a8ff57d06daa2c8c,,603f6ea3c439b514c173633d,6182caef7d90cbfe4b3ce9ba,3016,345,False,True,71,1,1,,,,,,,"[['0', '0', '0', '0'], ['0', '0', 'B', '0'], ['0', '0', 'B', '0'], ['A', 'A', '0', '0']]","{'i': [1, 1, 1, 2, 3, 3, 3], 'j': [0, 3, 2, 2, 3, 0, 1], 't': [12575.300000011921, 13206, 13652.200000047684, 19986.400000035763, 26931.400000035763, 28287, 28778.400000035763], 'hit': ['0', '0', 'B', 'B', '0', 'A', 'A']}","[['unknown', 'unknown', 'unknown', 'unknown'], ['sea', 'unknown', 'ship', 'sea'], ['unknown', 'unknown', 'ship', 'unknown'], ['ship', 'ship', 'unknown', 'sea']]",7.0,9.0,1.0,,,,,,,
,instructions,8,194525,0.0-6.0,61814837a8ff57d06daa2c8c,,603f6ea3c439b514c173633d,6182caef7d90cbfe4b3ce9ba,3016,345,False,True,71,1,1,"[{""page_index"":0,""viewing_time"":7943}]",7943.599999964237,,,,,,,,,,,,,,,,,
,Battleships,9,217116,0.0-7.0-0.0,61814837a8ff57d06daa2c8c,,603f6ea3c439b514c173633d,6182caef7d90cbfe4b3ce9ba,3016,345,False,True,71,1,1,,,,,,pretend,"[['B', 'B', '0', '0', '0'], ['0', '0', '0', '0', '0'], ['A', 'A', 'A', '0', '0'], ['0', '0', '0', '0', '0'], ['0', '0', '0', 'C', 'C']]","{'i': [1, 3, 4, 2, 2, 2, 3, 4, 4, 0, 0, 0], 'j': [3, 1, 1, 1, 0, 2, 3, 4, 3, 3, 1, 0], 't': [7333.300000011921, 13140.600000023842, 13491.300000011921, 13861.300000011921, 14213.199999988079, 14682.300000011921, 16254.300000011921, 16805.400000035763, 17136.5, 19730.100000023842, 20170.19999998808, 20500.19999998808], 'hit': ['0', '0', '0', 'A', 'A', 'A', '0', 'C', 'C', '0', 'B', 'B']}","[['ship', 'ship', 'unknown', 'sea', 'unknown'], ['unknown', 'unknown', 'unknown', 'sea', 'unknown'], ['ship', 'ship', 'ship', 'unknown', 'unknown'], ['unknown', 'sea', 'unknown', 'sea', 'unknown'], ['unknown', 'sea', 'unknown', 'ship', 'ship']]",12.0,13.0,1.0,2.0,,,,,,
,instructions,10,227814,0.0-7.0-1.0,61814837a8ff57d06daa2c8c,,603f6ea3c439b514c173633d,6182caef7d90cbfe4b3ce9ba,3016,345,False,True,71,1,1,"[{""page_index"":0,""viewing_time"":10696}]",10696.699999988079,,,,,,,,,,,,,,,,,
,Battleships,11,242898,0.0-7.0-0.1,61814837a8ff57d06daa2c8c,,603f6ea3c439b514c173633d,6182caef7d90cbfe4b3ce9ba,3016,345,False,True,71,1,1,,,,,,pretend,"[['0', '0', '0', '0', '0'], ['0', '0', '0', '0', '0'], ['C', '0', '0', '0', 'A'], ['C', '0', 'B', '0', 'A'], ['0', '0', 'B', '0', 'A']]","{'i': [2, 2, 3, 4, 0, 0, 1, 3, 4, 3, 4, 2, 3], 'j': [3, 4, 4, 4, 1, 3, 1, 1, 2, 2, 0, 0, 0], 't': [4258.199999988079, 4634.5, 4929.299999952316, 5225.399999976158, 7072.5, 7633.299999952316, 8784.299999952316, 10096.5, 10572.599999964237, 10862.399999976158, 12299.399999976158, 12700.399999976158, 13005.599999964237], 'hit': ['0', 'A', 'A', 'A', '0', '0', '0', '0', 'B', 'B', '0', 'C', 'C']}","[['unknown', 'sea', 'unknown', 'sea', 'unknown'], ['unknown', 'sea', 'unknown', 'unknown', 'unknown'], ['ship', 'unknown', 'unknown', 'sea', 'ship'], ['ship', 'sea', 'ship', 'unknown', 'ship'], ['sea', 'unknown', 'ship', 'unknown', 'ship']]",13.0,12.0,1.0,5.0,,,,,,
,instructions,12,244126,0.0-7.0-1.1,61814837a8ff57d06daa2c8c,,603f6ea3c439b514c173633d,6182caef7d90cbfe4b3ce9ba,3016,345,False,True,71,1,1,"[{""page_index"":0,""viewing_time"":1227.1000000238419}]",1227.6000000238419,,,,,,,,,,,,,,,,,
,Battleships,13,256699,0.0-7.0-0.2,61814837a8ff57d06daa2c8c,,603f6ea3c439b514c173633d,6182caef7d90cbfe4b3ce9ba,3016,345,False,True,71,1,1,,,,,,pretend,"[['C', 'C', '0', '0', '0'], ['0', '0', '0', '0', '0'], ['B', 'B', '0', 'A', '0'], ['0', '0', '0', 'A', '0'], ['0', '0', '0', 'A', '0']]","{'i': [2, 3, 4, 2, 3, 4, 2, 2, 0, 1, 0, 0], 'j': [3, 3, 3, 4, 1, 0, 0, 1, 3, 1, 0, 1], 't': [1711.5, 1961.699999988079, 2237.399999976158, 3568.5, 6102.600000023842, 7264.899999976158, 7994.5, 8240.5, 9101.5, 9877.5, 10252.5, 10483.800000011921], 'hit': ['A', 'A', 'A', '0', '0', '0', 'B', 'B', '0', '0', 'C', 'C']}","[['ship', 'ship', 'unknown', 'sea', 'unknown'], ['unknown', 'sea', 'unknown', 'unknown', 'unknown'], ['ship', 'ship', 'unknown', 'ship', 'sea'], ['unknown', 'sea', 'unknown', 'ship', 'unknown'], ['sea', 'unknown', 'unknown', 'ship', 'unknown']]",12.0,13.0,1.0,1.0,,,,,,
,instructions,14,257890,0.0-7.0-1.2,61814837a8ff57d06daa2c8c,,603f6ea3c439b514c173633d,6182caef7d90cbfe4b3ce9ba,3016,345,False,True,71,1,1,"[{""page_index"":0,""viewing_time"":1189.7000000476837}]",1190.0,,,,,,,,,,,,,,,,,
,Battleships,15,270350,0.0-7.0-0.3,61814837a8ff57d06daa2c8c,,603f6ea3c439b514c173633d,6182caef7d90cbfe4b3ce9ba,3016,345,False,True,71,1,1,,,,,,pretend,"[['0', '0', '0', 'C', '0'], ['0', '0', '0', 'C', '0'], ['0', '0', '0', '0', '0'], ['A', 'A', 'A', '0', '0'], ['0', '0', '0', 'B', 'B']]","{'i': [1, 2, 3, 3, 3, 2, 4, 4, 0, 1, 0, 0, 1], 'j': [0, 0, 0, 1, 2, 4, 3, 4, 2, 2, 3, 4, 3], 't': [2921.300000011921, 3230.699999988079, 3516.800000011921, 3788.199999988079, 4088.099999964237, 4838.699999988079, 5163.899999976158, 5404.699999988079, 6270.800000011921, 6495.599999964237, 8733.699999988079, 9874.599999964237, 10371.399999976158], 'hit': ['0', '0', 'A', 'A', 'A', '0', 'B', 'B', '0', '0', 'C', '0', 'C']}","[['unknown', 'unknown', 'sea', 'ship', 'sea'], ['sea', 'unknown', 'sea', 'ship', 'unknown'], ['sea', 'unknown', 'unknown', 'unknown', 'sea'], ['ship', 'ship', 'ship', 'unknown', 'unknown'], ['unknown', 'unknown', 'unknown', 'ship', 'ship']]",13.0,12.0,1.0,7.0,,,,,,
,instructions,16,271213,0.0-7.0-1.3,61814837a8ff57d06daa2c8c,,603f6ea3c439b514c173633d,6182caef7d90cbfe4b3ce9ba,3016,345,False,True,71,1,1,"[{""page_index"":0,""viewing_time"":861.6999999880791}]",861.8999999761581,,,,,,,,,,,,,,,,,
,Battleships,17,279867,0.0-7.0-0.4,61814837a8ff57d06daa2c8c,,603f6ea3c439b514c173633d,6182caef7d90cbfe4b3ce9ba,3016,345,False,True,71,1,1,,,,,,pretend,"[['0', '0', '0', 'B', '0'], ['0', '0', '0', 'B', '0'], ['C', 'C', '0', '0', 'A'], ['0', '0', '0', '0', 'A'], ['0', '0', '0', '0', 'A']]","{'i': [4, 4, 4, 3, 2, 2, 1, 0, 0, 0, 3, 2, 2], 'j': [3, 2, 4, 4, 4, 3, 3, 3, 4, 1, 0, 1, 0], 't': [1818.7999999523163, 2138.7999999523163, 2439.699999988079, 2860.199999988079, 3140.899999976158, 3450.899999976158, 3851.7999999523163, 4121.799999952316, 4617.899999976158, 5122.799999952316, 5999, 6339.899999976158, 6580.099999964237], 'hit': ['0', '0', 'A', 'A', 'A', '0', 'B', 'B', '0', '0', '0', 'C', 'C']}","[['unknown', 'sea', 'unknown', 'ship', 'sea'], ['unknown', 'unknown', 'unknown', 'ship', 'unknown'], ['ship', 'ship', 'unknown', 'sea', 'ship'], ['sea', 'unknown', 'unknown', 'unknown', 'ship'], ['unknown', 'unknown', 'sea', 'sea', 'ship']]",13.0,12.0,1.0,6.0,,,,,,
,instructions,18,280840,0.0-7.0-1.4,61814837a8ff57d06daa2c8c,,603f6ea3c439b514c173633d,6182caef7d90cbfe4b3ce9ba,3016,345,False,True,71,1,1,"[{""page_index"":0,""viewing_time"":971.7000000476837}]",972.0,,,,,,,,,,,,,,,,,
,instructions,19,290088,0.0-8.0,61814837a8ff57d06daa2c8c,,603f6ea3c439b514c173633d,6182caef7d90cbfe4b3ce9ba,3016,345,False,True,71,1,1,"[{""page_index"":0,""viewing_time"":9247.200000047684}]",9247.5,,,,,,,,,,,,,,,,,
,Battleships,20,309701,0.0-9.0-0.0,61814837a8ff57d06daa2c8c,,603f6ea3c439b514c173633d,6182caef7d90cbfe4b3ce9ba,3016,345,False,True,71,1,1,,,,,,non-pretend,"[['0', 'A', '0', '0', '0'], ['0', 'A', '0', 'B', 'B'], ['0', 'A', '0', '0', '0'], ['0', '0', 'C', '0', '0'], ['0', '0', 'C', '0', '0']]","{'i': [2, 2, 3, 3, 0, 1, 1, 2, 0, 4, 4, 1, 1, 1, 0, 3, 3, 4], 'j': [4, 3, 3, 0, 2, 1, 0, 1, 1, 3, 1, 4, 3, 2, 4, 2, 1, 2], 't': [1519, 2058.599999964237, 2784.599999964237, 3771.599999964237, 4477.599999964237, 5218.800000011921, 6354.599999964237, 7041.399999976158, 7606.699999988079, 10085.599999964237, 11011.599999964237, 11622.599999964237, 12217.699999988079, 13609.599999964237, 14345.5, 15943.599999964237, 16408.69999998808, 17525.399999976158], 'hit': ['0', '0', '0', '0', '0', 'A', '0', 'A', 'A', '0', '0', 'B', 'B', '0', '0', 'C', '0', 'C']}","[['unknown', 'ship', 'sea', 'unknown', 'sea'], ['sea', 'ship', 'sea', 'ship', 'ship'], ['unknown', 'ship', 'unknown', 'sea', 'sea'], ['sea', 'sea', 'ship', 'sea', 'unknown'], ['unknown', 'sea', 'ship', 'sea', 'unknown']]",18.0,7.0,0.0,8.0,,,,,,
,instructions,21,312357,0.0-9.0-1.0,61814837a8ff57d06daa2c8c,,603f6ea3c439b514c173633d,6182caef7d90cbfe4b3ce9ba,3016,345,False,True,71,1,1,"[{""page_index"":0,""viewing_time"":2655}]",2655.2999999523163,,,,,,,,,,,,,,,,,
,Battleships,22,323335,0.0-9.0-0.1,61814837a8ff57d06daa2c8c,,603f6ea3c439b514c173633d,6182caef7d90cbfe4b3ce9ba,3016,345,False,True,71,1,1,,,,,,non-pretend,"[['0', '0', '0', '0', '0'], ['0', '0', '0', '0', 'A'], ['0', 'B', 'B', '0', 'A'], ['0', '0', '0', '0', 'A'], ['C', 'C', '0', '0', '0']]","{'i': [2, 2, 2, 2, 2, 3, 4, 1, 0, 0, 4, 4], 'j': [1, 0, 2, 4, 3, 4, 4, 4, 1, 2, 0, 1], 't': [920.9000000357628, 1200.9000000357628, 1817.1000000238419, 2303, 2918, 4349.800000011921, 5507, 6068, 7119.600000023842, 7460, 8200.800000011921, 8892.100000023842], 'hit': ['B', '0', 'B', 'A', '0', 'A', '0', 'A', '0', '0', 'C', 'C']}","[['unknown', 'sea', 'sea', 'unknown', 'unknown'], ['unknown', 'unknown', 'unknown', 'unknown', 'ship'], ['sea', 'ship', 'ship', 'sea', 'ship'], ['unknown', 'unknown', 'unknown', 'unknown', 'ship'], ['ship', 'ship', 'unknown', 'unknown', 'sea']]",12.0,13.0,0.0,0.0,,,,,,
,instructions,23,324199,0.0-9.0-1.1,61814837a8ff57d06daa2c8c,,603f6ea3c439b514c173633d,6182caef7d90cbfe4b3ce9ba,3016,345,False,True,71,1,1,"[{""page_index"":0,""viewing_time"":863}]",863.3000000119209,,,,,,,,,,,,,,,,,
,Battleships,24,337785,0.0-9.0-0.2,61814837a8ff57d06daa2c8c,,603f6ea3c439b514c173633d,6182caef7d90cbfe4b3ce9ba,3016,345,False,True,71,1,1,,,,,,non-pretend,"[['0', '0', '0', '0', 'B'], ['A', 'A', 'A', '0', 'B'], ['0', '0', '0', 'C', '0'], ['0', '0', '0', 'C', '0'], ['0', '0', '0', '0', '0']]","{'i': [4, 0, 1, 1, 1, 3, 3, 3, 4, 2, 1, 2, 1, 0], 'j': [1, 3, 1, 2, 0, 3, 4, 2, 3, 3, 3, 1, 4, 4], 't': [760.5, 1427, 2082.599999964237, 2783.5, 3354.599999964237, 4801.5, 5427.699999988079, 6078.800000011921, 6558.599999964237, 6999.399999976158, 8065.599999964237, 9372.5, 10494.899999976158, 11480.899999976158], 'hit': ['0', '0', 'A', 'A', 'A', 'C', '0', '0', '0', 'C', '0', '0', 'B', 'B']}","[['unknown', 'unknown', 'unknown', 'sea', 'ship'], ['ship', 'ship', 'ship', 'sea', 'ship'], ['unknown', 'sea', 'unknown', 'ship', 'unknown'], ['unknown', 'unknown', 'sea', 'ship', 'sea'], ['unknown', 'sea', 'unknown', 'sea', 'unknown']]",14.0,11.0,0.0,4.0,,,,,,
,instructions,25,338604,0.0-9.0-1.2,61814837a8ff57d06daa2c8c,,603f6ea3c439b514c173633d,6182caef7d90cbfe4b3ce9ba,3016,345,False,True,71,1,1,"[{""page_index"":0,""viewing_time"":817.6000000238419}]",817.8000000119209,,,,,,,,,,,,,,,,,
,Battleships,26,350536,0.0-9.0-0.3,61814837a8ff57d06daa2c8c,,603f6ea3c439b514c173633d,6182caef7d90cbfe4b3ce9ba,3016,345,False,True,71,1,1,,,,,,non-pretend,"[['0', '0', '0', '0', 'B'], ['0', '0', '0', '0', 'B'], ['0', 'A', 'A', 'A', '0'], ['0', '0', '0', '0', '0'], ['0', '0', 'C', 'C', '0']]","{'i': [3, 4, 4, 4, 4, 1, 1, 1, 1, 1, 0, 2, 2, 2, 2, 2], 'j': [3, 3, 4, 2, 1, 0, 1, 2, 4, 3, 4, 4, 1, 0, 2, 3], 't': [907.7999999523163, 1318.5999999642372, 2375.699999988079, 2840.7999999523163, 3386.699999988079, 4252.699999988079, 4487.799999952316, 4878.699999988079, 5393.699999988079, 5899.799999952316, 6521, 6930.799999952316, 7782.899999976158, 8509.699999988079, 9018.899999976158, 9844.699999988079], 'hit': ['0', 'C', '0', 'C', '0', '0', '0', '0', 'B', '0', 'B', '0', 'A', '0', 'A', 'A']}","[['unknown', 'unknown', 'unknown', 'unknown', 'ship'], ['sea', 'sea', 'sea', 'sea', 'ship'], ['sea', 'ship', 'ship', 'ship', 'sea'], ['unknown', 'unknown', 'unknown', 'sea', 'unknown'], ['unknown', 'sea', 'ship', 'ship', 'sea']]",16.0,9.0,0.0,3.0,,,,,,
,instructions,27,351618,0.0-9.0-1.3,61814837a8ff57d06daa2c8c,,603f6ea3c439b514c173633d,6182caef7d90cbfe4b3ce9ba,3016,345,False,True,71,1,1,"[{""page_index"":0,""viewing_time"":1080.5}]",1080.9000000357628,,,,,,,,,,,,,,,,,
,Battleships,28,369088,0.0-9.0-0.4,61814837a8ff57d06daa2c8c,,603f6ea3c439b514c173633d,6182caef7d90cbfe4b3ce9ba,3016,345,False,True,71,1,1,,,,,,non-pretend,"[['B', 'B', '0', '0', '0'], ['0', '0', '0', '0', '0'], ['A', 'A', 'A', '0', '0'], ['0', '0', '0', '0', '0'], ['0', '0', '0', 'C', 'C']]","{'i': [3, 3, 3, 1, 1, 1, 0, 3, 4, 4, 2, 2, 2, 1, 0, 0, 0, 4, 4, 4, 1, 2, 3, 2], 'j': [4, 3, 2, 0, 1, 3, 4, 0, 0, 1, 2, 1, 3, 2, 2, 1, 0, 4, 3, 2, 4, 4, 1, 0], 't': [1257.3999999761581, 1529.199999988079, 1868.300000011921, 2644.399999976158, 2910.600000023842, 3666.199999988079, 4111.600000023842, 5023.399999976158, 5448.300000011921, 5769.300000011921, 6460.399999976158, 6976.399999976158, 7466.399999976158, 7997.399999976158, 8808.5, 9039.300000011921, 10015.300000011921, 10711.300000011921, 11142.399999976158, 12003.300000011921, 13770.300000011921, 14311.300000011921, 14957.5, 15382.199999988079], 'hit': ['0', '0', '0', '0', '0', '0', '0', '0', '0', '0', 'A', 'A', '0', '0', '0', 'B', 'B', 'C', 'C', '0', '0', '0', '0', 'A']}","[['ship', 'ship', 'sea', 'unknown', 'sea'], ['sea', 'sea', 'sea', 'sea', 'sea'], ['ship', 'ship', 'ship', 'sea', 'sea'], ['sea', 'sea', 'sea', 'sea', 'sea'], ['sea', 'sea', 'sea', 'ship', 'ship']]",24.0,1.0,0.0,2.0,,,,,,
,instructions,29,370288,0.0-9.0-1.4,61814837a8ff57d06daa2c8c,,603f6ea3c439b514c173633d,6182caef7d90cbfe4b3ce9ba,3016,345,False,True,71,1,1,"[{""page_index"":0,""viewing_time"":1200.199999988079}]",1200.3999999761581,,,,,,,,,,,,,,,,,
,instructions,30,389383,0.0-10.0,61814837a8ff57d06daa2c8c,,603f6ea3c439b514c173633d,6182caef7d90cbfe4b3ce9ba,3016,345,False,True,71,1,1,"[{""page_index"":0,""viewing_time"":7264.199999988079},{""page_index"":1,""viewing_time"":11830}]",19094.400000035763,,,,,,,,,,,,,,,,,
,Battleships_replay_2players,31,454481,0.0-11.0-0.0,61814837a8ff57d06daa2c8c,,603f6ea3c439b514c173633d,6182caef7d90cbfe4b3ce9ba,3016,345,False,True,71,1,1,,,,,0.0,judge,"[['0', '0', '0', '0', 'B'], ['0', '0', '0', '0', 'B'], ['0', 'A', 'A', 'A', '0'], ['0', '0', '0', '0', '0'], ['0', '0', 'C', 'C', '0']]",,,,,,3.0,"['left', 'right', 'right']",right,329.0,328.0,left,right
,instructions,32,466877,0.0-11.0-1.0,61814837a8ff57d06daa2c8c,,603f6ea3c439b514c173633d,6182caef7d90cbfe4b3ce9ba,3016,345,False,True,71,1,1,"[{""page_index"":0,""viewing_time"":12394.699999988079}]",12395.099999964237,,,,,,,,,,,,,,,,,
,Battleships_replay_2players,33,547900,0.0-11.0-0.1,61814837a8ff57d06daa2c8c,,603f6ea3c439b514c173633d,6182caef7d90cbfe4b3ce9ba,3016,345,False,True,71,1,1,,,,,1.0,judge,"[['0', '0', '0', '0', 'B'], ['A', 'A', 'A', '0', 'B'], ['0', '0', '0', 'C', '0'], ['0', '0', '0', 'C', '0'], ['0', '0', '0', '0', '0']]",,,,,,4.0,"['left', 'right']",right,330.0,336.0,right,left
,instructions,34,549790,0.0-11.0-1.1,61814837a8ff57d06daa2c8c,,603f6ea3c439b514c173633d,6182caef7d90cbfe4b3ce9ba,3016,345,False,True,71,1,1,"[{""page_index"":0,""viewing_time"":1888.699999988079}]",1889.0,,,,,,,,,,,,,,,,,
,Battleships_replay_2players,35,615392,0.0-11.0-0.2,61814837a8ff57d06daa2c8c,,603f6ea3c439b514c173633d,6182caef7d90cbfe4b3ce9ba,3016,345,False,True,71,1,1,,,,,0.0,judge,"[['B', 'B', '0', '0', '0'], ['0', '0', '0', '0', '0'], ['A', 'A', 'A', '0', '0'], ['0', '0', '0', '0', '0'], ['0', '0', '0', 'C', 'C']]",,,,,,2.0,"['left', 'right']",left,338.0,336.0,right,left
,instructions,36,617815,0.0-11.0-1.2,61814837a8ff57d06daa2c8c,,603f6ea3c439b514c173633d,6182caef7d90cbfe4b3ce9ba,3016,345,False,True,71,1,1,"[{""page_index"":0,""viewing_time"":2421.300000011921}]",2421.599999964237,,,,,,,,,,,,,,,,,
,Battleships_replay_2players,37,708818,0.0-11.0-0.3,61814837a8ff57d06daa2c8c,,603f6ea3c439b514c173633d,6182caef7d90cbfe4b3ce9ba,3016,345,False,True,71,1,1,,,,,1.0,judge,"[['0', '0', '0', '0', '0'], ['0', '0', '0', '0', 'A'], ['0', 'B', 'B', '0', 'A'], ['0', '0', '0', '0', 'A'], ['C', 'C', '0', '0', '0']]",,,,,,0.0,"['left', 'right']",left,330.0,333.0,left,right
,instructions,38,710456,0.0-11.0-1.3,61814837a8ff57d06daa2c8c,,603f6ea3c439b514c173633d,6182caef7d90cbfe4b3ce9ba,3016,345,False,True,71,1,1,"[{""page_index"":0,""viewing_time"":1636.5}]",1636.9000000357628,,,,,,,,,,,,,,,,,
,Battleships_replay_2players,39,752934,0.0-11.0-0.4,61814837a8ff57d06daa2c8c,,603f6ea3c439b514c173633d,6182caef7d90cbfe4b3ce9ba,3016,345,False,True,71,1,1,,,,,1.0,judge,"[['C', 'C', '0', '0', '0'], ['0', '0', '0', '0', '0'], ['B', 'B', '0', 'A', '0'], ['0', '0', '0', 'A', '0'], ['0', '0', '0', 'A', '0']]",,,,,,1.0,"['left', 'right']",right,331.0,333.0,right,left
,instructions,40,754150,0.0-11.0-1.4,61814837a8ff57d06daa2c8c,,603f6ea3c439b514c173633d,6182caef7d90cbfe4b3ce9ba,3016,345,False,True,71,1,1,"[{""page_index"":0,""viewing_time"":1214.5}]",1214.800000011921,,,,,,,,,,,,,,,,,
,survey-text,41,798683,0.0-12.0,61814837a8ff57d06daa2c8c,,603f6ea3c439b514c173633d,6182caef7d90cbfe4b3ce9ba,3016,345,False,True,71,1,1,,44530.19999998808,"{""debrief"":""Did not have strategy, You just can easily see players with hints...""}",,,,,,,,,,,,,,,,
,survey-text,42,811249,0.0-13.0,61814837a8ff57d06daa2c8c,,603f6ea3c439b514c173633d,6182caef7d90cbfe4b3ce9ba,3016,345,False,True,71,1,1,,12564.699999988079,"{""worker_comments"":""Great study!""}",,,,,,,,,,,,,,,,
,instructions,43,821238,0.0-14.0,61814837a8ff57d06daa2c8c,,603f6ea3c439b514c173633d,6182caef7d90cbfe4b3ce9ba,3016,345,False,True,71,1,1,"[{""page_index"":0,""viewing_time"":9987.900000035763}]",9988.0,,,,,,,,,,,,,,,,,
1.0,fullscreen,0,2496,0.0-0.0,61814837a8ff57d06daa2c8c,,5d959fdf9cf6ab001982afee,6182caed811bde3fd5c6cced,3016,344,False,True,82,1,1,,,,,,,,,,,,,,,,,,,
,instructions,1,37094,0.0-1.0-0.0,61814837a8ff57d06daa2c8c,,5d959fdf9cf6ab001982afee,6182caed811bde3fd5c6cced,3016,344,False,True,82,1,1,"[{""page_index"":0,""viewing_time"":6199.299999952316},{""page_index"":1,""viewing_time"":7553.700000047684},{""page_index"":2,""viewing_time"":9832.200000047684},{""page_index"":3,""viewing_time"":11011}]",34596.700000047684,,,,,,,,,,,,,,,,,
,survey-multi-choice,2,44333,0.0-1.0-1.0,61814837a8ff57d06daa2c8c,,5d959fdf9cf6ab001982afee,6182caed811bde3fd5c6cced,3016,344,False,True,82,1,1,,7238.099999904633,"{""Q0"":""... sink all ships with as <b>few clicks</b> as possible""}",[0],1.0,multichoice_nonpretend,,,,,,,,,,,,,
,instructions,3,46058,0.0-2.0,61814837a8ff57d06daa2c8c,,5d959fdf9cf6ab001982afee,6182caed811bde3fd5c6cced,3016,344,False,True,82,1,1,"[{""page_index"":0,""viewing_time"":1723.7999999523163}]",1724.0,,,,,,,,,,,,,,,,,
,Battleships,4,61277,0.0-3.0,61814837a8ff57d06daa2c8c,,5d959fdf9cf6ab001982afee,6182caed811bde3fd5c6cced,3016,344,False,True,82,1,1,,,,,,,"[['0', '0', '0', '0'], ['A', '0', 'B', 'B'], ['A', '0', '0', '0'], ['0', '0', '0', '0']]","{'i': [0, 1, 0, 2, 1, 3, 3, 2, 1, 0, 0, 2], 'j': [2, 3, 3, 3, 2, 0, 1, 1, 0, 0, 1, 0], 't': [2992.7000000476837, 4936.799999952316, 6542.599999904633, 7234.599999904633, 7800.599999904633, 8762.099999904633, 9194.799999952316, 9744.700000047684, 10343.700000047684, 11325.700000047684, 12286.700000047684, 13122.799999952316], 'hit': ['0', 'B', '0', '0', 'B', '0', '0', '0', 'A', '0', '0', 'A']}","[['sea', 'sea', 'sea', 'sea'], ['ship', 'unknown', 'ship', 'ship'], ['ship', 'sea', 'unknown', 'sea'], ['sea', 'sea', 'unknown', 'unknown']]",12.0,4.0,0.0,,,,,,,
,instructions,5,88063,0.0-4.0-0.0,61814837a8ff57d06daa2c8c,,5d959fdf9cf6ab001982afee,6182caed811bde3fd5c6cced,3016,344,False,True,82,1,1,"[{""page_index"":0,""viewing_time"":2075.5999999046326},{""page_index"":1,""viewing_time"":7506.900000095367},{""page_index"":2,""viewing_time"":8306.099999904633},{""page_index"":3,""viewing_time"":8897.100000143051}]",26785.799999952316,,,,,,,,,,,,,,,,,
,survey-multi-choice,6,95144,0.0-4.0-1.0,61814837a8ff57d06daa2c8c,,5d959fdf9cf6ab001982afee,6182caed811bde3fd5c6cced,3016,344,False,True,82,1,1,,7080.0,"{""Q0"":""... play the game as if the cross hints <b>were not there</b> so that I look like someone who <b>had no hints</b>""}",[0],1.0,multichoice_pretend,,,,,,,,,,,,,
,Battleships,7,115343,0.0-5.0,61814837a8ff57d06daa2c8c,,5d959fdf9cf6ab001982afee,6182caed811bde3fd5c6cced,3016,344,False,True,82,1,1,,,,,,,"[['0', '0', '0', '0'], ['0', '0', 'B', '0'], ['0', '0', 'B', '0'], ['A', 'A', '0', '0']]","{'i': [1, 1, 0, 2, 2, 1, 2, 3, 3, 3], 'j': [1, 0, 2, 2, 3, 2, 1, 1, 2, 0], 't': [5044.899999856949, 6780.099999904633, 9278.099999904633, 10161.899999856949, 11381.799999952316, 12028.899999856949, 15440.799999952316, 17022.89999985695, 17527.799999952316, 18106.799999952316], 'hit': ['0', '0', '0', 'B', '0', 'B', '0', 'A', '0', 'A']}","[['unknown', 'unknown', 'sea', 'unknown'], ['sea', 'sea', 'ship', 'unknown'], ['unknown', 'sea', 'ship', 'sea'], ['ship', 'ship', 'sea', 'unknown']]",10.0,6.0,1.0,,,,,,,
,instructions,8,142524,0.0-6.0,61814837a8ff57d06daa2c8c,,5d959fdf9cf6ab001982afee,6182caed811bde3fd5c6cced,3016,344,False,True,82,1,1,"[{""page_index"":0,""viewing_time"":27179.599999904633}]",27180.0,,,,,,,,,,,,,,,,,
,Battleships,9,167010,0.0-7.0-0.0,61814837a8ff57d06daa2c8c,,5d959fdf9cf6ab001982afee,6182caed811bde3fd5c6cced,3016,344,False,True,82,1,1,,,,,,pretend,"[['0', '0', '0', '0', 'B'], ['A', 'A', 'A', '0', 'B'], ['0', '0', '0', 'C', '0'], ['0', '0', '0', 'C', '0'], ['0', '0', '0', '0', '0']]","{'i': [2, 3, 2, 1, 1, 1, 1, 4, 0, 2, 3, 2, 3, 3, 1, 0], 'j': [1, 2, 4, 2, 3, 1, 0, 2, 3, 2, 3, 3, 1, 0, 4, 4], 't': [2073.2999999523163, 2985.2000000476837, 3974.2000000476837, 4764.100000143051, 5664.400000095367, 6264, 8384.400000095367, 9204.200000047684, 10361.200000047684, 11532.299999952316, 12326.100000143051, 13705.900000095367, 15291.100000143051, 18048.10000014305, 21742.299999952316, 22395.200000047684], 'hit': ['0', '0', '0', 'A', '0', 'A', 'A', '0', '0', '0', 'C', 'C', '0', '0', 'B', 'B']}","[['unknown', 'unknown', 'unknown', 'sea', 'ship'], ['ship', 'ship', 'ship', 'sea', 'ship'], ['unknown', 'sea', 'sea', 'ship', 'sea'], ['sea', 'sea', 'sea', 'ship', 'unknown'], ['unknown', 'unknown', 'sea', 'unknown', 'unknown']]",16.0,9.0,1.0,4.0,,,,,,
,instructions,10,169098,0.0-7.0-1.0,61814837a8ff57d06daa2c8c,,5d959fdf9cf6ab001982afee,6182caed811bde3fd5c6cced,3016,344,False,True,82,1,1,"[{""page_index"":0,""viewing_time"":2086.2000000476837}]",2086.399999856949,,,,,,,,,,,,,,,,,
,Battleships,11,190644,0.0-7.0-0.1,61814837a8ff57d06daa2c8c,,5d959fdf9cf6ab001982afee,6182caed811bde3fd5c6cced,3016,344,False,True,82,1,1,,,,,,pretend,"[['0', '0', '0', '0', '0'], ['0', '0', '0', '0', 'A'], ['0', 'B', 'B', '0', 'A'], ['0', '0', '0', '0', 'A'], ['C', 'C', '0', '0', '0']]","{'i': [2, 2, 4, 4, 0, 1, 1, 2, 3, 4, 1, 0, 3, 4, 4], 'j': [2, 1, 2, 3, 2, 2, 3, 4, 4, 4, 4, 3, 1, 1, 0], 't': [1768.5, 4301.5, 7120.599999904633, 8243.5, 8778.599999904633, 9176.5, 9481.299999952316, 10034.599999904633, 12339.599999904633, 13264.700000047684, 13960.5, 16171.5, 17023.5, 17818.700000047684, 19455.5], 'hit': ['B', 'B', '0', '0', '0', '0', '0', 'A', 'A', '0', 'A', '0', '0', 'C', 'C']}","[['unknown', 'unknown', 'sea', 'sea', 'unknown'], ['unknown', 'unknown', 'sea', 'sea', 'ship'], ['unknown', 'ship', 'ship', 'unknown', 'ship'], ['unknown', 'sea', 'unknown', 'unknown', 'ship'], ['ship', 'ship', 'sea', 'sea', 'sea']]",15.0,10.0,1.0,0.0,,,,,,
,instructions,12,192180,0.0-7.0-1.1,61814837a8ff57d06daa2c8c,,5d959fdf9cf6ab001982afee,6182caed811bde3fd5c6cced,3016,344,False,True,82,1,1,"[{""page_index"":0,""viewing_time"":1534.8999998569489}]",1535.0999999046326,,,,,,,,,,,,,,,,,
,Battleships,13,215560,0.0-7.0-0.2,61814837a8ff57d06daa2c8c,,5d959fdf9cf6ab001982afee,6182caed811bde3fd5c6cced,3016,344,False,True,82,1,1,,,,,,pretend,"[['C', 'C', '0', '0', '0'], ['0', '0', '0', '0', '0'], ['B', 'B', '0', 'A', '0'], ['0', '0', '0', 'A', '0'], ['0', '0', '0', 'A', '0']]","{'i': [2, 1, 1, 3, 3, 3, 2, 4, 2, 1, 2, 0, 0, 0], 'j': [2, 3, 1, 1, 3, 2, 3, 3, 1, 2, 0, 2, 1, 0], 't': [1115.1000001430511, 2879.2999999523163, 3205, 3557.2000000476837, 3859.2000000476837, 6090.200000047684, 6391.200000047684, 6894.100000143051, 8557.100000143051, 9096.100000143051, 9559.100000143051, 19073.200000047684, 20402.900000095367, 21298.400000095367], 'hit': ['0', '0', '0', '0', 'A', '0', 'A', 'A', 'B', '0', 'B', '0', 'C', 'C']}","[['ship', 'ship', 'sea', 'unknown', 'unknown'], ['unknown', 'sea', 'sea', 'sea', 'unknown'], ['ship', 'ship', 'sea', 'ship', 'unknown'], ['unknown', 'sea', 'sea', 'ship', 'unknown'], ['unknown', 'unknown', 'unknown', 'ship', 'unknown']]",14.0,11.0,1.0,1.0,,,,,,
,instructions,14,216339,0.0-7.0-1.2,61814837a8ff57d06daa2c8c,,5d959fdf9cf6ab001982afee,6182caed811bde3fd5c6cced,3016,344,False,True,82,1,1,"[{""page_index"":0,""viewing_time"":777.5}]",777.7000000476837,,,,,,,,,,,,,,,,,
,Battleships,15,227275,0.0-7.0-0.3,61814837a8ff57d06daa2c8c,,5d959fdf9cf6ab001982afee,6182caed811bde3fd5c6cced,3016,344,False,True,82,1,1,,,,,,pretend,"[['0', 'A', '0', '0', '0'], ['0', 'A', '0', 'B', 'B'], ['0', 'A', '0', '0', '0'], ['0', '0', 'C', '0', '0'], ['0', '0', 'C', '0', '0']]","{'i': [2, 2, 3, 3, 3, 4, 2, 1, 0, 1, 1, 1], 'j': [2, 3, 3, 2, 1, 2, 1, 1, 1, 2, 3, 4], 't': [702.7000000476837, 1151, 1528.8000001907349, 1813.7000000476837, 3409.9000000953674, 4452.600000143051, 6161.800000190735, 7057.800000190735, 7655.900000095367, 8026.800000190735, 8447.800000190735, 8843.900000095367], 'hit': ['0', '0', '0', 'C', '0', 'C', 'A', 'A', 'A', '0', 'B', 'B']}","[['unknown', 'ship', 'unknown', 'unknown', 'unknown'], ['unknown', 'ship', 'sea', 'ship', 'ship'], ['unknown', 'ship', 'sea', 'sea', 'unknown'], ['unknown', 'sea', 'ship', 'sea', 'unknown'], ['unknown', 'unknown', 'ship', 'unknown', 'unknown']]",12.0,13.0,1.0,8.0,,,,,,
,instructions,16,228069,0.0-7.0-1.3,61814837a8ff57d06daa2c8c,,5d959fdf9cf6ab001982afee,6182caed811bde3fd5c6cced,3016,344,False,True,82,1,1,"[{""page_index"":0,""viewing_time"":793.3999998569489}]",793.5999999046326,,,,,,,,,,,,,,,,,
,Battleships,17,240894,0.0-7.0-0.4,61814837a8ff57d06daa2c8c,,5d959fdf9cf6ab001982afee,6182caed811bde3fd5c6cced,3016,344,False,True,82,1,1,,,,,,pretend,"[['0', '0', '0', 'B', '0'], ['0', '0', '0', 'B', '0'], ['C', 'C', '0', '0', 'A'], ['0', '0', '0', '0', 'A'], ['0', '0', '0', '0', 'A']]","{'i': [2, 1, 1, 1, 0, 2, 3, 3, 3, 2, 2, 4, 0, 2, 3, 4], 'j': [2, 2, 3, 4, 3, 3, 3, 2, 1, 1, 0, 2, 2, 4, 4, 4], 't': [702.4000000953674, 1369.2000000476837, 1825.4000000953674, 3518.4000000953674, 3841.4000000953674, 4666.200000047684, 5401.100000143051, 5710.300000190735, 6005.400000095367, 6286.400000095367, 6925.400000095367, 8571.600000143051, 9087.400000095367, 10044.700000047684, 10443.300000190735, 10728.100000143051], 'hit': ['0', '0', 'B', '0', 'B', '0', '0', '0', '0', 'C', 'C', '0', '0', 'A', 'A', 'A']}","[['unknown', 'unknown', 'sea', 'ship', 'unknown'], ['unknown', 'unknown', 'sea', 'ship', 'sea'], ['ship', 'ship', 'sea', 'sea', 'ship'], ['unknown', 'sea', 'sea', 'sea', 'ship'], ['unknown', 'unknown', 'sea', 'unknown', 'ship']]",16.0,9.0,1.0,6.0,,,,,,
,instructions,18,241777,0.0-7.0-1.4,61814837a8ff57d06daa2c8c,,5d959fdf9cf6ab001982afee,6182caed811bde3fd5c6cced,3016,344,False,True,82,1,1,"[{""page_index"":0,""viewing_time"":881.7000000476837}]",881.8999998569489,,,,,,,,,,,,,,,,,
,instructions,19,249867,0.0-8.0,61814837a8ff57d06daa2c8c,,5d959fdf9cf6ab001982afee,6182caed811bde3fd5c6cced,3016,344,False,True,82,1,1,"[{""page_index"":0,""viewing_time"":8090.099999904633}]",8090.299999952316,,,,,,,,,,,,,,,,,
,Battleships,20,268592,0.0-9.0-0.0,61814837a8ff57d06daa2c8c,,5d959fdf9cf6ab001982afee,6182caed811bde3fd5c6cced,3016,344,False,True,82,1,1,,,,,,non-pretend,"[['0', '0', '0', '0', 'B'], ['0', '0', '0', '0', 'B'], ['0', 'A', 'A', 'A', '0'], ['0', '0', '0', '0', '0'], ['0', '0', 'C', 'C', '0']]","{'i': [2, 2, 2, 2, 0, 4, 4, 4, 1, 1, 0], 'j': [2, 3, 4, 1, 2, 2, 3, 0, 0, 4, 4], 't': [1101.7999999523163, 3594.7999999523163, 4790.900000095367, 5319.600000143051, 8266.600000143051, 9876.600000143051, 10771.600000143051, 12822.700000047684, 14459.700000047684, 15712.600000143051, 16639.60000014305], 'hit': ['A', 'A', '0', 'A', '0', 'C', 'C', '0', '0', 'B', 'B']}","[['unknown', 'unknown', 'sea', 'unknown', 'ship'], ['sea', 'unknown', 'unknown', 'unknown', 'ship'], ['unknown', 'ship', 'ship', 'ship', 'sea'], ['unknown', 'unknown', 'unknown', 'unknown', 'unknown'], ['sea', 'unknown', 'ship', 'ship', 'unknown']]",11.0,14.0,0.0,3.0,,,,,,
,instructions,21,269453,0.0-9.0-1.0,61814837a8ff57d06daa2c8c,,5d959fdf9cf6ab001982afee,6182caed811bde3fd5c6cced,3016,344,False,True,82,1,1,"[{""page_index"":0,""viewing_time"":860.5}]",860.7999999523163,,,,,,,,,,,,,,,,,
,Battleships,22,281692,0.0-9.0-0.1,61814837a8ff57d06daa2c8c,,5d959fdf9cf6ab001982afee,6182caed811bde3fd5c6cced,3016,344,False,True,82,1,1,,,,,,non-pretend,"[['B', 'B', '0', '0', '0'], ['0', '0', '0', '0', '0'], ['A', 'A', 'A', '0', '0'], ['0', '0', '0', '0', '0'], ['0', '0', '0', 'C', 'C']]","{'i': [2, 2, 2, 2, 4, 4, 0, 0, 0, 0], 'j': [2, 3, 1, 0, 3, 4, 3, 4, 1, 0], 't': [1808.5, 2740.4000000953674, 3319.4000000953674, 4031.5999999046326, 6217.400000095367, 6839.599999904633, 7896.599999904633, 8372.5, 9351.5, 10142.400000095367], 'hit': ['A', '0', 'A', 'A', 'C', 'C', '0', '0', 'B', 'B']}","[['ship', 'ship', 'unknown', 'sea', 'sea'], ['unknown', 'unknown', 'unknown', 'unknown', 'unknown'], ['ship', 'ship', 'ship', 'sea', 'unknown'], ['unknown', 'unknown', 'unknown', 'unknown', 'unknown'], ['unknown', 'unknown', 'unknown', 'ship', 'ship']]",10.0,15.0,0.0,2.0,,,,,,
,instructions,23,283355,0.0-9.0-1.1,61814837a8ff57d06daa2c8c,,5d959fdf9cf6ab001982afee,6182caed811bde3fd5c6cced,3016,344,False,True,82,1,1,"[{""page_index"":0,""viewing_time"":1663}]",1663.0,,,,,,,,,,,,,,,,,
,Battleships,24,298242,0.0-9.0-0.2,61814837a8ff57d06daa2c8c,,5d959fdf9cf6ab001982afee,6182caed811bde3fd5c6cced,3016,344,False,True,82,1,1,,,,,,non-pretend,"[['0', '0', '0', 'C', '0'], ['0', '0', '0', 'C', '0'], ['0', '0', '0', '0', '0'], ['A', 'A', 'A', '0', '0'], ['0', '0', '0', 'B', 'B']]","{'i': [2, 1, 1, 2, 0, 3, 3, 3, 4, 4], 'j': [2, 3, 4, 3, 3, 1, 2, 0, 3, 4], 't': [1011.3000001907349, 1846.3000001907349, 3453.2000000476837, 4322.200000047684, 5040.800000190735, 6876.200000047684, 8123.5, 9559.300000190735, 11759.700000047684, 12803.200000047684], 'hit': ['0', 'C', '0', '0', 'C', 'A', 'A', 'A', 'B', 'B']}","[['unknown', 'unknown', 'unknown', 'ship', 'unknown'], ['unknown', 'unknown', 'unknown', 'ship', 'sea'], ['unknown', 'unknown', 'sea', 'sea', 'unknown'], ['ship', 'ship', 'ship', 'unknown', 'unknown'], ['unknown', 'unknown', 'unknown', 'ship', 'ship']]",10.0,15.0,0.0,7.0,,,,,,
,instructions,25,299129,0.0-9.0-1.2,61814837a8ff57d06daa2c8c,,5d959fdf9cf6ab001982afee,6182caed811bde3fd5c6cced,3016,344,False,True,82,1,1,"[{""page_index"":0,""viewing_time"":886.7000000476837}]",886.9000000953674,,,,,,,,,,,,,,,,,
,Battleships,26,311792,0.0-9.0-0.3,61814837a8ff57d06daa2c8c,,5d959fdf9cf6ab001982afee,6182caed811bde3fd5c6cced,3016,344,False,True,82,1,1,,,,,,non-pretend,"[['0', '0', '0', '0', '0'], ['0', '0', '0', '0', '0'], ['C', '0', '0', '0', 'A'], ['C', '0', 'B', '0', 'A'], ['0', '0', 'B', '0', 'A']]","{'i': [2, 1, 3, 3, 1, 2, 2, 1, 3, 4, 0, 2, 3, 4, 2, 1, 3], 'j': [2, 3, 3, 1, 1, 3, 1, 2, 2, 2, 4, 4, 4, 4, 0, 0, 0], 't': [622.5, 1134.5999999046326, 1555.2999999523163, 1920.5, 2285.5, 3073.2999999523163, 3444.399999856949, 3949.5, 4365.599999904633, 4898.399999856949, 6316.299999952316, 7105.399999856949, 7972.399999856949, 8323.199999809265, 9123.399999856949, 9853.599999904633, 10577.399999856949], 'hit': ['0', '0', '0', '0', '0', '0', '0', '0', 'B', 'B', '0', 'A', 'A', 'A', 'C', '0', 'C']}","[['unknown', 'unknown', 'unknown', 'unknown', 'sea'], ['sea', 'sea', 'sea', 'sea', 'unknown'], ['ship', 'sea', 'sea', 'sea', 'ship'], ['ship', 'sea', 'ship', 'sea', 'ship'], ['unknown', 'unknown', 'ship', 'unknown', 'ship']]",17.0,8.0,0.0,5.0,,,,,,
,instructions,27,312749,0.0-9.0-1.3,61814837a8ff57d06daa2c8c,,5d959fdf9cf6ab001982afee,6182caed811bde3fd5c6cced,3016,344,False,True,82,1,1,"[{""page_index"":0,""viewing_time"":956.7000000476837}]",956.7999999523163,,,,,,,,,,,,,,,,,
,Battleships,28,326975,0.0-9.0-0.4,61814837a8ff57d06daa2c8c,,5d959fdf9cf6ab001982afee,6182caed811bde3fd5c6cced,3016,344,False,True,82,1,1,,,,,,non-pretend,"[['C', 'C', '0', '0', '0'], ['0', '0', '0', '0', '0'], ['B', 'B', '0', 'A', '0'], ['0', '0', '0', 'A', '0'], ['0', '0', '0', 'A', '0']]","{'i': [2, 1, 2, 2, 2, 1, 3, 3, 3, 4, 2, 0, 0, 0, 0], 'j': [2, 3, 4, 0, 1, 2, 2, 3, 4, 3, 3, 3, 1, 2, 0], 't': [904.7999999523163, 1460.7999999523163, 2089.7000000476837, 2641.7000000476837, 3539.9000000953674, 4679.799999952316, 5648.799999952316, 6256.900000095367, 6918.299999952316, 7485.299999952316, 8263.700000047684, 9397.900000095367, 10557.799999952316, 11041.799999952316, 12144.799999952316], 'hit': ['0', '0', '0', 'B', 'B', '0', '0', 'A', '0', 'A', 'A', '0', 'C', '0', 'C']}","[['ship', 'ship', 'sea', 'sea', 'unknown'], ['unknown', 'unknown', 'sea', 'sea', 'unknown'], ['ship', 'ship', 'sea', 'ship', 'sea'], ['unknown', 'unknown', 'sea', 'ship', 'sea'], ['unknown', 'unknown', 'unknown', 'ship', 'unknown']]",15.0,10.0,0.0,1.0,,,,,,
,instructions,29,327835,0.0-9.0-1.4,61814837a8ff57d06daa2c8c,,5d959fdf9cf6ab001982afee,6182caed811bde3fd5c6cced,3016,344,False,True,82,1,1,"[{""page_index"":0,""viewing_time"":858.5999999046326}]",858.7999999523163,,,,,,,,,,,,,,,,,
,instructions,30,339330,0.0-10.0,61814837a8ff57d06daa2c8c,,5d959fdf9cf6ab001982afee,6182caed811bde3fd5c6cced,3016,344,False,True,82,1,1,"[{""page_index"":0,""viewing_time"":5375.399999856949},{""page_index"":1,""viewing_time"":6119.400000095367}]",11495.099999904633,,,,,,,,,,,,,,,,,
,Battleships_replay_2players,31,395623,0.0-11.0-0.0,61814837a8ff57d06daa2c8c,,5d959fdf9cf6ab001982afee,6182caed811bde3fd5c6cced,3016,344,False,True,82,1,1,,,,,0.0,judge,"[['0', '0', '0', '0', 'B'], ['0', '0', '0', '0', 'B'], ['0', 'A', 'A', 'A', '0'], ['0', '0', '0', '0', '0'], ['0', '0', 'C', 'C', '0']]",,,,,,3.0,"['left', 'right']",right,331.0,338.0,left,right
,instructions,32,399432,0.0-11.0-1.0,61814837a8ff57d06daa2c8c,,5d959fdf9cf6ab001982afee,6182caed811bde3fd5c6cced,3016,344,False,True,82,1,1,"[{""page_index"":0,""viewing_time"":3808}]",3808.300000190735,,,,,,,,,,,,,,,,,
,Battleships_replay_2players,33,466605,0.0-11.0-0.1,61814837a8ff57d06daa2c8c,,5d959fdf9cf6ab001982afee,6182caed811bde3fd5c6cced,3016,344,False,True,82,1,1,,,,,0.0,judge,"[['0', '0', '0', '0', 'B'], ['A', 'A', 'A', '0', 'B'], ['0', '0', '0', 'C', '0'], ['0', '0', '0', 'C', '0'], ['0', '0', '0', '0', '0']]",,,,,,4.0,"['left', 'right']",left,331.0,327.0,right,left
,instructions,34,467709,0.0-11.0-1.1,61814837a8ff57d06daa2c8c,,5d959fdf9cf6ab001982afee,6182caed811bde3fd5c6cced,3016,344,False,True,82,1,1,"[{""page_index"":0,""viewing_time"":1103.4000000953674}]",1103.5999999046326,,,,,,,,,,,,,,,,,
,Battleships_replay_2players,35,567834,0.0-11.0-0.2,61814837a8ff57d06daa2c8c,,5d959fdf9cf6ab001982afee,6182caed811bde3fd5c6cced,3016,344,False,True,82,1,1,,,,,1.0,judge,"[['0', '0', '0', '0', '0'], ['0', '0', '0', '0', 'A'], ['0', 'B', 'B', '0', 'A'], ['0', '0', '0', '0', 'A'], ['C', 'C', '0', '0', '0']]",,,,,,0.0,"['left', 'right']",left,330.0,337.0,left,right
,instructions,36,568925,0.0-11.0-1.2,61814837a8ff57d06daa2c8c,,5d959fdf9cf6ab001982afee,6182caed811bde3fd5c6cced,3016,344,False,True,82,1,1,"[{""page_index"":0,""viewing_time"":1089}]",1089.1999998092651,,,,,,,,,,,,,,,,,
,Battleships_replay_2players,37,616147,0.0-11.0-0.3,61814837a8ff57d06daa2c8c,,5d959fdf9cf6ab001982afee,6182caed811bde3fd5c6cced,3016,344,False,True,82,1,1,,,,,1.0,judge,"[['C', 'C', '0', '0', '0'], ['0', '0', '0', '0', '0'], ['B', 'B', '0', 'A', '0'], ['0', '0', '0', 'A', '0'], ['0', '0', '0', 'A', '0']]",,,,,,1.0,"['left', 'right']",left,331.0,334.0,left,right
,instructions,38,617249,0.0-11.0-1.3,61814837a8ff57d06daa2c8c,,5d959fdf9cf6ab001982afee,6182caed811bde3fd5c6cced,3016,344,False,True,82,1,1,"[{""page_index"":0,""viewing_time"":1100.1999998092651}]",1100.2999999523163,,,,,,,,,,,,,,,,,
,Battleships_replay_2players,39,706556,0.0-11.0-0.4,61814837a8ff57d06daa2c8c,,5d959fdf9cf6ab001982afee,6182caed811bde3fd5c6cced,3016,344,False,True,82,1,1,,,,,0.0,judge,"[['B', 'B', '0', '0', '0'], ['0', '0', '0', '0', '0'], ['A', 'A', 'A', '0', '0'], ['0', '0', '0', '0', '0'], ['0', '0', '0', 'C', 'C']]",,,,,,2.0,"['left', 'right']",right,328.0,330.0,left,right
,instructions,40,708696,0.0-11.0-1.4,61814837a8ff57d06daa2c8c,,5d959fdf9cf6ab001982afee,6182caed811bde3fd5c6cced,3016,344,False,True,82,1,1,"[{""page_index"":0,""viewing_time"":2138.2999999523163}]",2138.5,,,,,,,,,,,,,,,,,
,survey-text,41,731495,0.0-12.0,61814837a8ff57d06daa2c8c,,5d959fdf9cf6ab001982afee,6182caed811bde3fd5c6cced,3016,344,False,True,82,1,1,,22797.0,"{""debrief"":""I used the same strategy that i would use for the game. Centre and outward.""}",,,,,,,,,,,,,,,,
,survey-text,42,736660,0.0-13.0,61814837a8ff57d06daa2c8c,,5d959fdf9cf6ab001982afee,6182caed811bde3fd5c6cced,3016,344,False,True,82,1,1,,5164.0,"{""worker_comments"":""""}",,,,,,,,,,,,,,,,
,instructions,43,744705,0.0-14.0,61814837a8ff57d06daa2c8c,,5d959fdf9cf6ab001982afee,6182caed811bde3fd5c6cced,3016,344,False,True,82,1,1,"[{""page_index"":0,""viewing_time"":8044.399999856949}]",8044.599999904633,,,,,,,,,,,,,,,,,
1.0,fullscreen,0,2539,0.0-0.0,61814837a8ff57d06daa2c8c,,61573df2a779b544c3729b54,6182c4c43ab683d19b1adb01,3016,343,True,False,59,2,1,,,,,,,,,,,,,,,,,,,
,instructions,1,6984,0.0-1.0-0.0,61814837a8ff57d06daa2c8c,,61573df2a779b544c3729b54,6182c4c43ab683d19b1adb01,3016,343,True,False,59,2,1,"[{""page_index"":0,""viewing_time"":1272},{""page_index"":1,""viewing_time"":992},{""page_index"":2,""viewing_time"":728},{""page_index"":3,""viewing_time"":1448}]",4441.0,,,,,,,,,,,,,,,,,
,survey-multi-choice,2,8923,0.0-1.0-1.0,61814837a8ff57d06daa2c8c,,61573df2a779b544c3729b54,6182c4c43ab683d19b1adb01,3016,343,True,False,59,2,1,,1936.0,"{""Q0"":""... sink all ships with as <b>few clicks</b> as possible""}",[0],1.0,multichoice_nonpretend,,,,,,,,,,,,,
