PROLIFIC_PID,SESSION_ID,STUDY_ID,batchId,cheat,cheat_player,cheater,choose_pretender,click_log,correct,decision,final_grid_state,generalMultiple,genuine_first,genuine_player,grid,grid_number,internal_node_id,noncheater,nonpretend_instructions,num_clicks,participant_number,points,pretend_instructions,question_order,replay_log,responses,rt,success,test_part,time_elapsed,total_points,trial_index,trial_type,view_history
6140620d3e937d82f30ce289,614b4f4e33e1a6d7f63c50fb,614a9c7e0714a6ab06bc69d6,2480,,,,False,,,,,,True,,,,0.0-0.0,,1,,222,,1,,,,,1.0,,5227,64,0,fullscreen,
6140620d3e937d82f30ce289,614b4f4e33e1a6d7f63c50fb,614a9c7e0714a6ab06bc69d6,2480,,,,False,,,,,,True,,,,0.0-1.0-0.0,,1,,222,,1,,,,133344.80000001192,,,138573,64,1,instructions,"[{""page_index"":0,""viewing_time"":19350.100000023842},{""page_index"":1,""viewing_time"":7331.099999964237},{""page_index"":2,""viewing_time"":29859.100000023842},{""page_index"":3,""viewing_time"":76804}]"
6140620d3e937d82f30ce289,614b4f4e33e1a6d7f63c50fb,614a9c7e0714a6ab06bc69d6,2480,,,,False,,1.0,,,,True,,,,0.0-1.0-1.0,,1,,222,,1,[0],,"{""Q0"":""... sink all ships with as <b>few clicks</b> as possible""}",6495.0,,multichoice_nonpretend,145069,64,2,survey-multi-choice,
6140620d3e937d82f30ce289,614b4f4e33e1a6d7f63c50fb,614a9c7e0714a6ab06bc69d6,2480,,,,False,,,,,,True,,,,0.0-2.0,,1,,222,,1,,,,4298.300000011921,,,149368,64,3,instructions,"[{""page_index"":0,""viewing_time"":4298.200000047684}]"
6140620d3e937d82f30ce289,614b4f4e33e1a6d7f63c50fb,614a9c7e0714a6ab06bc69d6,2480,0.0,,,False,"{'i': [0, 0, 3, 3, 1, 2, 1, 1, 2, 0, 3, 0, 2, 2, 1], 'j': [1, 2, 1, 0, 2, 2, 1, 3, 3, 3, 2, 0, 0, 1, 0], 't': [2966.800000011921, 4389.600000023842, 11582.399999976158, 12717.300000011921, 17841, 21030.69999998808, 24098.600000023842, 25786.80000001192, 27937.600000023842, 29359.69999998808, 31076.600000023842, 32894.30000001192, 34428, 35609.80000001192, 36907.10000002384], 'hit': ['0', '0', '0', '0', 'B', '0', '0', 'B', '0', '0', '0', '0', 'A', '0', 'A']}",,,"[['sea', 'sea', 'sea', 'sea'], ['ship', 'sea', 'ship', 'ship'], ['ship', 'sea', 'sea', 'sea'], ['sea', 'sea', 'sea', 'unknown']]",,True,,"[['0', '0', '0', '0'], ['A', '0', 'B', 'B'], ['A', '0', '0', '0'], ['0', '0', '0', '0']]",,0.0-3.0,,1,15.0,222,1.0,1,,,,,,,188361,64,4,Battleships,
6140620d3e937d82f30ce289,614b4f4e33e1a6d7f63c50fb,614a9c7e0714a6ab06bc69d6,2480,,,,False,,,,,,True,,,,0.0-4.0,,1,,222,,1,,,,46355.69999998808,,,234717,64,5,instructions,"[{""page_index"":0,""viewing_time"":46355.19999998808}]"
6140620d3e937d82f30ce289,614b4f4e33e1a6d7f63c50fb,614a9c7e0714a6ab06bc69d6,2480,0.0,,,False,"{'i': [0, 2, 2, 2, 1, 3, 4, 4, 3, 0, 0, 1, 1, 1, 0, 1], 'j': [2, 3, 4, 2, 3, 3, 3, 0, 1, 0, 1, 1, 0, 2, 4, 4], 't': [1837.800000011921, 3751.599999964237, 5842.800000011921, 7264.199999988079, 9229, 10595.5, 11653, 14043.5, 15579.300000011921, 17117.5, 18196.899999976158, 19415.5, 22407.30000001192, 28599.899999976158, 30390.5, 31879.69999998808], 'hit': ['0', 'C', '0', '0', '0', 'C', '0', '0', '0', '0', '0', 'A', 'A', 'A', 'B', 'B']}",,,"[['sea', 'sea', 'sea', 'unknown', 'ship'], ['ship', 'ship', 'ship', 'sea', 'ship'], ['unknown', 'unknown', 'sea', 'ship', 'sea'], ['unknown', 'sea', 'unknown', 'ship', 'unknown'], ['sea', 'unknown', 'unknown', 'sea', 'unknown']]",,True,,"[['0', '0', '0', '0', 'B'], ['A', 'A', 'A', '0', 'B'], ['0', '0', '0', 'C', '0'], ['0', '0', '0', 'C', '0'], ['0', '0', '0', '0', '0']]",4.0,0.0-5.0-0.0,,1,16.0,222,9.0,1,,,,,,non-pretend,268734,64,6,Battleships,
6140620d3e937d82f30ce289,614b4f4e33e1a6d7f63c50fb,614a9c7e0714a6ab06bc69d6,2480,,,,False,,,,,,True,,,,0.0-5.0-1.0,,1,,222,,1,,,,3823.399999976158,,,272560,64,7,instructions,"[{""page_index"":0,""viewing_time"":3822.899999976158}]"
6140620d3e937d82f30ce289,614b4f4e33e1a6d7f63c50fb,614a9c7e0714a6ab06bc69d6,2480,0.0,,,False,"{'i': [1, 0, 0, 1, 2, 4, 3, 0, 4, 3, 0, 4, 3, 4, 4, 2, 2, 2, 2], 'j': [1, 4, 3, 4, 4, 4, 4, 0, 0, 1, 1, 2, 2, 1, 3, 1, 0, 2, 3], 't': [2452.2999999523163, 3968.199999988079, 5761.599999964237, 6911.399999976158, 8126.699999988079, 9635.5, 11496.299999952316, 13039.399999976158, 14469.299999952316, 16152.199999988079, 18775.19999998808, 26298.099999964237, 28502.399999976158, 29571.69999998808, 30624.399999976158, 36270.299999952316, 37296.09999996424, 38558.09999996424, 39509.89999997616], 'hit': ['0', 'B', '0', 'B', '0', '0', '0', '0', '0', '0', '0', 'C', '0', '0', 'C', 'A', '0', 'A', 'A']}",,,"[['sea', 'sea', 'unknown', 'sea', 'ship'], ['unknown', 'sea', 'unknown', 'unknown', 'ship'], ['sea', 'ship', 'ship', 'ship', 'sea'], ['unknown', 'sea', 'sea', 'unknown', 'sea'], ['sea', 'sea', 'ship', 'ship', 'sea']]",,True,,"[['0', '0', '0', '0', 'B'], ['0', '0', '0', '0', 'B'], ['0', 'A', 'A', 'A', '0'], ['0', '0', '0', '0', '0'], ['0', '0', 'C', 'C', '0']]",3.0,0.0-5.0-0.1,,1,19.0,222,6.0,1,,,,,,non-pretend,314150,64,8,Battleships,
6140620d3e937d82f30ce289,614b4f4e33e1a6d7f63c50fb,614a9c7e0714a6ab06bc69d6,2480,,,,False,,,,,,True,,,,0.0-5.0-1.1,,1,,222,,1,,,,2878.900000035763,,,317031,64,9,instructions,"[{""page_index"":0,""viewing_time"":2878.600000023842}]"
6140620d3e937d82f30ce289,614b4f4e33e1a6d7f63c50fb,614a9c7e0714a6ab06bc69d6,2480,0.0,,,False,"{'i': [0, 0, 4, 4, 3, 4, 4, 1, 0, 2, 2, 3, 2, 2, 3, 3, 1, 1, 1, 0], 'j': [4, 0, 0, 4, 4, 3, 2, 1, 2, 2, 0, 1, 3, 1, 2, 0, 3, 4, 2, 3], 't': [3865, 5034.900000035763, 6337.100000023842, 7571.600000023842, 10463.200000047684, 11730.800000011921, 13284.300000011921, 15617.300000011921, 18207, 21050.400000035763, 23446.700000047684, 25412.5, 30932.400000035763, 34598.200000047684, 36053.5, 37379.5, 40312.10000002384, 41764.700000047684, 42787, 44789.30000001192], 'hit': ['0', '0', '0', 'B', '0', 'B', '0', '0', '0', '0', '0', 'A', '0', '0', 'A', 'A', 'C', '0', '0', 'C']}",,,"[['sea', 'unknown', 'sea', 'ship', 'sea'], ['unknown', 'sea', 'sea', 'ship', 'sea'], ['sea', 'sea', 'sea', 'sea', 'unknown'], ['ship', 'ship', 'ship', 'unknown', 'sea'], ['sea', 'unknown', 'sea', 'ship', 'ship']]",,True,,"[['0', '0', '0', 'C', '0'], ['0', '0', '0', 'C', '0'], ['0', '0', '0', '0', '0'], ['A', 'A', 'A', '0', '0'], ['0', '0', '0', 'B', 'B']]",7.0,0.0-5.0-0.2,,1,20.0,222,5.0,1,,,,,,non-pretend,363903,64,10,Battleships,
6140620d3e937d82f30ce289,614b4f4e33e1a6d7f63c50fb,614a9c7e0714a6ab06bc69d6,2480,,,,False,,,,,,True,,,,0.0-5.0-1.2,,1,,222,,1,,,,2158.600000023842,,,366065,64,11,instructions,"[{""page_index"":0,""viewing_time"":2158.300000011921}]"
6140620d3e937d82f30ce289,614b4f4e33e1a6d7f63c50fb,614a9c7e0714a6ab06bc69d6,2480,0.0,,,False,"{'i': [1, 0, 1, 0, 0, 0, 2, 3, 3, 3, 3, 4, 4, 4, 3, 4, 4, 1, 2, 2, 2], 'j': [1, 0, 0, 1, 2, 4, 3, 0, 3, 2, 1, 1, 0, 4, 4, 3, 2, 4, 1, 2, 0], 't': [2471.399999976158, 5208.599999964237, 10258, 11433.300000011921, 12873.099999964237, 14437.300000011921, 15921.699999988079, 18794.099999964237, 21030.099999964237, 22727.099999964237, 23938, 25437.69999998808, 26556.599999964237, 27967.80000001192, 31394.399999976158, 32393.80000001192, 33195.30000001192, 35444.09999996424, 37245, 38303.30000001192, 39252.69999998808], 'hit': ['0', 'B', '0', 'B', '0', '0', '0', '0', '0', '0', '0', '0', '0', 'C', '0', 'C', '0', '0', 'A', 'A', 'A']}",,,"[['ship', 'ship', 'sea', 'unknown', 'sea'], ['sea', 'sea', 'unknown', 'unknown', 'sea'], ['ship', 'ship', 'ship', 'sea', 'unknown'], ['sea', 'sea', 'sea', 'sea', 'sea'], ['sea', 'sea', 'sea', 'ship', 'ship']]",,True,,"[['B', 'B', '0', '0', '0'], ['0', '0', '0', '0', '0'], ['A', 'A', 'A', '0', '0'], ['0', '0', '0', '0', '0'], ['0', '0', '0', 'C', 'C']]",2.0,0.0-5.0-0.3,,1,21.0,222,4.0,1,,,,,,non-pretend,407406,64,12,Battleships,
6140620d3e937d82f30ce289,614b4f4e33e1a6d7f63c50fb,614a9c7e0714a6ab06bc69d6,2480,,,,False,,,,,,True,,,,0.0-5.0-1.3,,1,,222,,1,,,,1331.699999988079,,,408740,64,13,instructions,"[{""page_index"":0,""viewing_time"":1331.3999999761581}]"
6140620d3e937d82f30ce289,614b4f4e33e1a6d7f63c50fb,614a9c7e0714a6ab06bc69d6,2480,0.0,,,False,"{'i': [0, 4, 0, 4, 4, 3, 2, 0, 2, 2, 2, 3, 4, 0, 1], 'j': [0, 4, 4, 0, 3, 4, 4, 2, 2, 1, 0, 2, 2, 3, 3], 't': [2203.699999988079, 3768.899999976158, 6023.599999964237, 7326.899999976158, 15425.199999988079, 16821.599999964237, 18605.5, 23508.599999964237, 24891.69999998808, 26090.599999964237, 30489.799999952316, 37232, 38727.69999998808, 44127, 45444.59999996424], 'hit': ['0', 'A', '0', '0', '0', 'A', 'A', '0', '0', 'C', 'C', '0', '0', 'B', 'B']}",,,"[['sea', 'unknown', 'sea', 'ship', 'sea'], ['unknown', 'unknown', 'unknown', 'ship', 'unknown'], ['ship', 'ship', 'sea', 'unknown', 'ship'], ['unknown', 'unknown', 'sea', 'unknown', 'ship'], ['sea', 'unknown', 'sea', 'sea', 'ship']]",,True,,"[['0', '0', '0', 'B', '0'], ['0', '0', '0', 'B', '0'], ['C', 'C', '0', '0', 'A'], ['0', '0', '0', '0', 'A'], ['0', '0', '0', '0', 'A']]",6.0,0.0-5.0-0.4,,1,15.0,222,10.0,1,,,,,,non-pretend,456264,64,14,Battleships,
6140620d3e937d82f30ce289,614b4f4e33e1a6d7f63c50fb,614a9c7e0714a6ab06bc69d6,2480,,,,False,,,,,,True,,,,0.0-5.0-1.4,,1,,222,,1,,,,1441.7999999523163,,,457708,64,15,instructions,"[{""page_index"":0,""viewing_time"":1441.3999999761581}]"
6140620d3e937d82f30ce289,614b4f4e33e1a6d7f63c50fb,614a9c7e0714a6ab06bc69d6,2480,,,,False,,,,,,True,,,,0.0-6.0-0.0,,1,,222,,1,,,,55741.5,,,513451,64,16,instructions,"[{""page_index"":0,""viewing_time"":5213.400000035763},{""page_index"":1,""viewing_time"":13188.599999964237},{""page_index"":2,""viewing_time"":14726.100000023842},{""page_index"":3,""viewing_time"":22612.899999976158}]"
6140620d3e937d82f30ce289,614b4f4e33e1a6d7f63c50fb,614a9c7e0714a6ab06bc69d6,2480,,,,False,,1.0,,,,True,,,,0.0-6.0-1.0,,1,,222,,1,[0],,"{""Q0"":""... play the game as if the cross hints <b>were not there</b> so that I look like someone who <b>had no hints</b>""}",16625.100000023842,,multichoice_pretend,530077,64,17,survey-multi-choice,
6140620d3e937d82f30ce289,614b4f4e33e1a6d7f63c50fb,614a9c7e0714a6ab06bc69d6,2480,1.0,,,False,"{'i': [3, 2, 0, 3, 1, 1, 0, 2, 3], 'j': [0, 0, 3, 3, 1, 2, 2, 2, 1], 't': [4529.100000023842, 5844.100000023842, 9215.600000023842, 10833.700000047684, 13691.600000023842, 14713.5, 16571.900000035763, 17651.900000035763, 20478.5], 'hit': ['A', '0', '0', '0', '0', 'B', '0', 'B', 'A']}",,,"[['unknown', 'unknown', 'sea', 'sea'], ['unknown', 'sea', 'ship', 'unknown'], ['sea', 'unknown', 'ship', 'unknown'], ['ship', 'ship', 'unknown', 'sea']]",,True,,"[['0', '0', '0', '0'], ['0', '0', 'B', '0'], ['0', '0', 'B', '0'], ['A', 'A', '0', '0']]",,0.0-7.0,,1,9.0,222,7.0,1,,,,,,,552648,64,18,Battleships,
6140620d3e937d82f30ce289,614b4f4e33e1a6d7f63c50fb,614a9c7e0714a6ab06bc69d6,2480,,,,False,,,,,,True,,,,0.0-8.0,,1,,222,,1,,,,29790.599999964237,,,582441,64,19,instructions,"[{""page_index"":0,""viewing_time"":29790.19999998808}]"
6140620d3e937d82f30ce289,614b4f4e33e1a6d7f63c50fb,614a9c7e0714a6ab06bc69d6,2480,1.0,,,False,"{'i': [0, 4, 0, 4, 1, 3, 0, 4, 4, 0, 1, 2, 2, 2, 2], 'j': [4, 0, 0, 4, 1, 3, 2, 2, 3, 3, 4, 0, 2, 1, 3], 't': [2563.100000023842, 4253.899999976158, 5563.899999976158, 6889.699999988079, 9016.399999976158, 10243, 12204, 14628.800000011921, 16611.30000001192, 21832.600000023842, 22798.69999998808, 24963, 27601, 29140.80000001192, 30424.80000001192], 'hit': ['B', '0', '0', '0', '0', '0', '0', 'C', 'C', '0', 'B', '0', 'A', 'A', 'A']}",,,"[['sea', 'unknown', 'sea', 'sea', 'ship'], ['unknown', 'sea', 'unknown', 'unknown', 'ship'], ['sea', 'ship', 'ship', 'ship', 'unknown'], ['unknown', 'unknown', 'unknown', 'sea', 'unknown'], ['sea', 'unknown', 'ship', 'ship', 'sea']]",,True,,"[['0', '0', '0', '0', 'B'], ['0', '0', '0', '0', 'B'], ['0', 'A', 'A', 'A', '0'], ['0', '0', '0', '0', '0'], ['0', '0', 'C', 'C', '0']]",3.0,0.0-9.0-0.0,,1,15.0,222,10.0,1,,,,,,pretend,614941,64,20,Battleships,
6140620d3e937d82f30ce289,614b4f4e33e1a6d7f63c50fb,614a9c7e0714a6ab06bc69d6,2480,,,,False,,,,,,True,,,,0.0-9.0-1.0,,1,,222,,1,,,,7925.300000011921,,,622867,64,21,instructions,"[{""page_index"":0,""viewing_time"":7924.699999988079}]"
6140620d3e937d82f30ce289,614b4f4e33e1a6d7f63c50fb,614a9c7e0714a6ab06bc69d6,2480,1.0,,,False,"{'i': [4, 0, 0, 4, 4, 3, 2, 0, 2, 2, 1, 3, 1, 1, 1, 3, 4], 'j': [0, 4, 0, 4, 3, 4, 4, 2, 2, 0, 0, 0, 2, 1, 3, 2, 2], 't': [1265.699999988079, 3228.300000011921, 5765.300000011921, 6955.199999988079, 9129.800000011921, 10552.800000011921, 12357.399999976158, 14439.199999988079, 16777.099999964237, 20441.80000001192, 21929.099999964237, 22877.599999964237, 25026.80000001192, 28901.399999976158, 34887.19999998808, 37539.39999997616, 39177.69999998808], 'hit': ['0', '0', '0', 'A', '0', 'A', 'A', '0', '0', 'C', '0', 'C', '0', '0', '0', 'B', 'B']}",,,"[['sea', 'unknown', 'sea', 'unknown', 'sea'], ['sea', 'sea', 'sea', 'sea', 'unknown'], ['ship', 'unknown', 'sea', 'unknown', 'ship'], ['ship', 'unknown', 'ship', 'unknown', 'ship'], ['sea', 'unknown', 'ship', 'sea', 'ship']]",,True,,"[['0', '0', '0', '0', '0'], ['0', '0', '0', '0', '0'], ['C', '0', '0', '0', 'A'], ['C', '0', 'B', '0', 'A'], ['0', '0', 'B', '0', 'A']]",5.0,0.0-9.0-0.1,,1,17.0,222,8.0,1,,,,,,pretend,664122,64,22,Battleships,
6140620d3e937d82f30ce289,614b4f4e33e1a6d7f63c50fb,614a9c7e0714a6ab06bc69d6,2480,,,,False,,,,,,True,,,,0.0-9.0-1.1,,1,,222,,1,,,,10347.0,,,674470,64,23,instructions,"[{""page_index"":0,""viewing_time"":10346.600000023842}]"
6140620d3e937d82f30ce289,614b4f4e33e1a6d7f63c50fb,614a9c7e0714a6ab06bc69d6,2480,1.0,,,False,"{'i': [0, 4, 4, 0, 1, 2, 1, 0, 1, 2, 3, 4, 4, 3, 2, 1, 0], 'j': [0, 4, 0, 4, 4, 4, 3, 2, 1, 1, 1, 2, 3, 2, 2, 2, 1], 't': [1730.3999999761581, 4871.199999988079, 6563.399999976158, 8672.899999976158, 12823.399999976158, 14003.699999988079, 15007.800000011921, 18407.399999976158, 21328.19999998808, 24186.19999998808, 27245.899999976158, 31436.30000001192, 34689, 36669.69999998808, 39048.19999998808, 40924.60000002384, 42969.60000002384], 'hit': ['0', '0', '0', '0', 'B', '0', 'B', '0', 'A', 'A', '0', 'C', '0', 'C', '0', '0', 'A']}",,,"[['sea', 'ship', 'sea', 'unknown', 'sea'], ['unknown', 'ship', 'sea', 'ship', 'ship'], ['unknown', 'ship', 'sea', 'unknown', 'sea'], ['unknown', 'sea', 'ship', 'unknown', 'unknown'], ['sea', 'unknown', 'ship', 'sea', 'sea']]",,True,,"[['0', 'A', '0', '0', '0'], ['0', 'A', '0', 'B', 'B'], ['0', 'A', '0', '0', '0'], ['0', '0', 'C', '0', '0'], ['0', '0', 'C', '0', '0']]",8.0,0.0-9.0-0.2,,1,17.0,222,8.0,1,,,,,,pretend,719523,64,24,Battleships,
6140620d3e937d82f30ce289,614b4f4e33e1a6d7f63c50fb,614a9c7e0714a6ab06bc69d6,2480,,,,False,,,,,,True,,,,0.0-9.0-1.2,,1,,222,,1,,,,3361.900000035763,,,722886,64,25,instructions,"[{""page_index"":0,""viewing_time"":3361.699999988079}]"
6140620d3e937d82f30ce289,614b4f4e33e1a6d7f63c50fb,614a9c7e0714a6ab06bc69d6,2480,1.0,,,False,"{'i': [0, 1, 0, 0, 2, 2, 3, 4, 4, 4, 3, 0, 2, 1, 2, 3, 4], 'j': [0, 0, 1, 2, 0, 1, 0, 0, 4, 2, 2, 4, 4, 3, 3, 3, 3], 't': [1441.0999999642372, 2716.5, 9309.399999976158, 10954.300000011921, 12100.399999976158, 12930.599999964237, 13850.599999964237, 14638, 15596.800000011921, 16749.30000001192, 17794.399999976158, 19846.599999964237, 21544.5, 23073.5, 25874, 26963.30000001192, 27890.599999964237], 'hit': ['C', '0', 'C', '0', 'B', 'B', '0', '0', '0', '0', '0', '0', '0', '0', 'A', 'A', 'A']}",,,"[['ship', 'ship', 'sea', 'unknown', 'sea'], ['sea', 'unknown', 'unknown', 'sea', 'unknown'], ['ship', 'ship', 'unknown', 'ship', 'sea'], ['sea', 'unknown', 'sea', 'ship', 'unknown'], ['sea', 'unknown', 'sea', 'ship', 'sea']]",,True,,"[['C', 'C', '0', '0', '0'], ['0', '0', '0', '0', '0'], ['B', 'B', '0', 'A', '0'], ['0', '0', '0', 'A', '0'], ['0', '0', '0', 'A', '0']]",1.0,0.0-9.0-0.3,,1,17.0,222,8.0,1,,,,,,pretend,752857,64,26,Battleships,
6140620d3e937d82f30ce289,614b4f4e33e1a6d7f63c50fb,614a9c7e0714a6ab06bc69d6,2480,,,,False,,,,,,True,,,,0.0-9.0-1.3,,1,,222,,1,,,,1783.300000011921,,,754641,64,27,instructions,"[{""page_index"":0,""viewing_time"":1783.1000000238419}]"
6140620d3e937d82f30ce289,614b4f4e33e1a6d7f63c50fb,614a9c7e0714a6ab06bc69d6,2480,1.0,,,False,"{'i': [4, 3, 4, 4, 4, 0, 0, 1, 2, 2, 1, 2, 2, 0, 1, 2, 3], 'j': [0, 0, 1, 2, 4, 4, 0, 1, 2, 3, 2, 1, 0, 2, 4, 4, 4], 't': [2245.100000023842, 3481.5, 5625.200000047684, 6664.200000047684, 8236.600000023842, 9727.700000047684, 10873.100000023842, 11885.300000011921, 14332.400000035763, 15803.200000047684, 18392.200000047684, 19362.600000023842, 21026.200000047684, 25961.5, 30194.30000001192, 31525.100000023842, 32847.40000003576], 'hit': ['C', '0', 'C', '0', '0', '0', '0', '0', 'B', '0', '0', 'B', '0', '0', 'A', 'A', 'A']}",,,"[['sea', 'unknown', 'sea', 'unknown', 'sea'], ['unknown', 'sea', 'sea', 'unknown', 'ship'], ['sea', 'ship', 'ship', 'sea', 'ship'], ['sea', 'unknown', 'unknown', 'unknown', 'ship'], ['ship', 'ship', 'sea', 'unknown', 'sea']]",,True,,"[['0', '0', '0', '0', '0'], ['0', '0', '0', '0', 'A'], ['0', 'B', 'B', '0', 'A'], ['0', '0', '0', '0', 'A'], ['C', 'C', '0', '0', '0']]",0.0,0.0-9.0-0.4,,1,17.0,222,8.0,1,,,,,,pretend,789562,64,28,Battleships,
6140620d3e937d82f30ce289,614b4f4e33e1a6d7f63c50fb,614a9c7e0714a6ab06bc69d6,2480,,,,False,,,,,,True,,,,0.0-9.0-1.4,,1,,222,,1,,,,1426.800000011921,,,790991,64,29,instructions,"[{""page_index"":0,""viewing_time"":1426.5}]"
6140620d3e937d82f30ce289,614b4f4e33e1a6d7f63c50fb,614a9c7e0714a6ab06bc69d6,2480,,,,False,,,,,,True,,,,0.0-10.0,,1,,222,,1,,,,38776.60000002384,,,829768,64,30,instructions,"[{""page_index"":0,""viewing_time"":12177.200000047684},{""page_index"":1,""viewing_time"":26598.899999976158}]"
6140620d3e937d82f30ce289,614b4f4e33e1a6d7f63c50fb,614a9c7e0714a6ab06bc69d6,2480,,211.0,right,False,,0.0,left,,,True,215.0,"[['C', 'C', '0', '0', '0'], ['0', '0', '0', '0', '0'], ['B', 'B', '0', 'A', '0'], ['0', '0', '0', 'A', '0'], ['0', '0', '0', 'A', '0']]",1.0,0.0-11.0-0.0,left,1,,222,,1,,"['left', 'right']",,,,judge,875429,64,31,Battleships_replay_2players,
6140620d3e937d82f30ce289,614b4f4e33e1a6d7f63c50fb,614a9c7e0714a6ab06bc69d6,2480,,,,False,,,,,,True,,,,0.0-11.0-1.0,,1,,222,,1,,,,8739.599999964237,,,884170,64,32,instructions,"[{""page_index"":0,""viewing_time"":8739.199999988079}]"
6140620d3e937d82f30ce289,614b4f4e33e1a6d7f63c50fb,614a9c7e0714a6ab06bc69d6,2480,,213.0,right,False,,0.0,left,,,True,210.0,"[['0', '0', '0', '0', '0'], ['0', '0', '0', '0', 'A'], ['0', 'B', 'B', '0', 'A'], ['0', '0', '0', '0', 'A'], ['C', 'C', '0', '0', '0']]",0.0,0.0-11.0-0.1,left,1,,222,,1,,"['left', 'right']",,,,judge,956850,64,33,Battleships_replay_2players,
6140620d3e937d82f30ce289,614b4f4e33e1a6d7f63c50fb,614a9c7e0714a6ab06bc69d6,2480,,,,False,,,,,,True,,,,0.0-11.0-1.1,,1,,222,,1,,,,2446.199999988079,,,959297,64,34,instructions,"[{""page_index"":0,""viewing_time"":2446}]"
6140620d3e937d82f30ce289,614b4f4e33e1a6d7f63c50fb,614a9c7e0714a6ab06bc69d6,2480,,217.0,left,False,,1.0,left,,,True,215.0,"[['B', 'B', '0', '0', '0'], ['0', '0', '0', '0', '0'], ['A', 'A', 'A', '0', '0'], ['0', '0', '0', '0', '0'], ['0', '0', '0', 'C', 'C']]",2.0,0.0-11.0-0.2,right,1,,222,,1,,"['left', 'right']",,,,judge,1012685,64,35,Battleships_replay_2players,
6140620d3e937d82f30ce289,614b4f4e33e1a6d7f63c50fb,614a9c7e0714a6ab06bc69d6,2480,,,,False,,,,,,True,,,,0.0-11.0-1.2,,1,,222,,1,,,,2887.099999964237,,,1015574,64,36,instructions,"[{""page_index"":0,""viewing_time"":2886.7999999523163}]"
6140620d3e937d82f30ce289,614b4f4e33e1a6d7f63c50fb,614a9c7e0714a6ab06bc69d6,2480,,208.0,right,False,,1.0,right,,,True,216.0,"[['0', '0', '0', '0', 'B'], ['A', 'A', 'A', '0', 'B'], ['0', '0', '0', 'C', '0'], ['0', '0', '0', 'C', '0'], ['0', '0', '0', '0', '0']]",4.0,0.0-11.0-0.3,left,1,,222,,1,,"['left', 'right']",,,,judge,1084547,64,37,Battleships_replay_2players,
6140620d3e937d82f30ce289,614b4f4e33e1a6d7f63c50fb,614a9c7e0714a6ab06bc69d6,2480,,,,False,,,,,,True,,,,0.0-11.0-1.3,,1,,222,,1,,,,1726.1000000238419,,,1086275,64,38,instructions,"[{""page_index"":0,""viewing_time"":1725.9000000357628}]"
6140620d3e937d82f30ce289,614b4f4e33e1a6d7f63c50fb,614a9c7e0714a6ab06bc69d6,2480,,207.0,right,False,,1.0,right,,,True,211.0,"[['0', '0', '0', '0', 'B'], ['0', '0', '0', '0', 'B'], ['0', 'A', 'A', 'A', '0'], ['0', '0', '0', '0', '0'], ['0', '0', 'C', 'C', '0']]",3.0,0.0-11.0-0.4,left,1,,222,,1,,"['left', 'right']",,,,judge,1139597,64,39,Battleships_replay_2players,
6140620d3e937d82f30ce289,614b4f4e33e1a6d7f63c50fb,614a9c7e0714a6ab06bc69d6,2480,,,,False,,,,,,True,,,,0.0-11.0-1.4,,1,,222,,1,,,,1986.3999999761581,,,1141585,64,40,instructions,"[{""page_index"":0,""viewing_time"":1986.0999999642372}]"
6140620d3e937d82f30ce289,614b4f4e33e1a6d7f63c50fb,614a9c7e0714a6ab06bc69d6,2480,,,,False,,,,,,True,,,,0.0-12.0,,1,,222,,1,,,"{""worker_comments"":""""}",10385.299999952316,,,1151971,64,41,survey-text,
6140620d3e937d82f30ce289,614b4f4e33e1a6d7f63c50fb,614a9c7e0714a6ab06bc69d6,2480,,,,False,,,,,,True,,,,0.0-13.0,,1,,222,,1,,,,18919.599999964237,,,1170892,64,42,instructions,"[{""page_index"":0,""viewing_time"":18919.099999964237}]"
6147733299655bdb3bd8ecec,614b4d7974d2745c4f6b1143,614a9c7e0714a6ab06bc69d6,2480,,,,False,,,,,,False,,,,0.0-0.0,,1,,221,,1,,,,,1.0,,7383,64,0,fullscreen,
6147733299655bdb3bd8ecec,614b4d7974d2745c4f6b1143,614a9c7e0714a6ab06bc69d6,2480,,,,False,,,,,,False,,,,0.0-1.0-0.0,,1,,221,,1,,,,43374.89999997616,,,50761,64,1,instructions,"[{""page_index"":0,""viewing_time"":16786.19999998808},{""page_index"":1,""viewing_time"":6834.699999988079},{""page_index"":2,""viewing_time"":7422.700000047684},{""page_index"":3,""viewing_time"":12330.399999976158}]"
6147733299655bdb3bd8ecec,614b4d7974d2745c4f6b1143,614a9c7e0714a6ab06bc69d6,2480,,,,False,,1.0,,,,False,,,,0.0-1.0-1.0,,1,,221,,1,[0],,"{""Q0"":""... sink all ships with as <b>few clicks</b> as possible""}",8285.5,,multichoice_nonpretend,59052,64,2,survey-multi-choice,
6147733299655bdb3bd8ecec,614b4d7974d2745c4f6b1143,614a9c7e0714a6ab06bc69d6,2480,,,,False,,,,,,False,,,,0.0-2.0,,1,,221,,1,,,,4966.600000023842,,,64021,64,3,instructions,"[{""page_index"":0,""viewing_time"":4966.199999988079}]"
6147733299655bdb3bd8ecec,614b4d7974d2745c4f6b1143,614a9c7e0714a6ab06bc69d6,2480,0.0,,,False,"{'i': [0, 1, 1, 2, 1, 0, 2], 'j': [2, 2, 3, 1, 0, 0, 0], 't': [2510, 4291.5, 5760.600000023842, 8635.600000023842, 10845.200000047684, 11688.400000035763, 12525.800000011921], 'hit': ['0', 'B', 'B', '0', 'A', '0', 'A']}",,,"[['sea', 'unknown', 'sea', 'unknown'], ['ship', 'unknown', 'ship', 'ship'], ['ship', 'sea', 'unknown', 'unknown'], ['unknown', 'unknown', 'unknown', 'unknown']]",,False,,"[['0', '0', '0', '0'], ['A', '0', 'B', 'B'], ['A', '0', '0', '0'], ['0', '0', '0', '0']]",,0.0-3.0,,1,7.0,221,9.0,1,,,,,,,78686,64,4,Battleships,
6147733299655bdb3bd8ecec,614b4d7974d2745c4f6b1143,614a9c7e0714a6ab06bc69d6,2480,,,,False,,,,,,False,,,,0.0-4.0-0.0,,1,,221,,1,,,,40274.5,,,118960,64,5,instructions,"[{""page_index"":0,""viewing_time"":4222.600000023842},{""page_index"":1,""viewing_time"":5594},{""page_index"":2,""viewing_time"":10857.399999976158},{""page_index"":3,""viewing_time"":19600}]"
6147733299655bdb3bd8ecec,614b4d7974d2745c4f6b1143,614a9c7e0714a6ab06bc69d6,2480,,,,False,,1.0,,,,False,,,,0.0-4.0-1.0,,1,,221,,1,[0],,"{""Q0"":""... play the game as if the cross hints <b>were not there</b> so that I look like someone who <b>had no hints</b>""}",9619.899999976158,,multichoice_pretend,128583,64,6,survey-multi-choice,
6147733299655bdb3bd8ecec,614b4d7974d2745c4f6b1143,614a9c7e0714a6ab06bc69d6,2480,1.0,,,False,"{'i': [0, 2, 2, 0, 0, 1, 1, 1, 2, 3, 2, 3, 3], 'j': [0, 3, 0, 2, 3, 3, 2, 1, 2, 2, 1, 1, 0], 't': [5180, 7573.300000011921, 10934, 13268.300000011921, 15346.100000023842, 17516.80000001192, 19145.900000035763, 21218.700000047684, 23411.600000023842, 26357.80000001192, 29217.100000023842, 30573, 31959.200000047684], 'hit': ['0', '0', '0', '0', '0', '0', 'B', '0', 'B', '0', '0', 'A', 'A']}",,,"[['sea', 'unknown', 'sea', 'sea'], ['unknown', 'sea', 'ship', 'sea'], ['sea', 'sea', 'ship', 'sea'], ['ship', 'ship', 'sea', 'unknown']]",,False,,"[['0', '0', '0', '0'], ['0', '0', 'B', '0'], ['0', '0', 'B', '0'], ['A', 'A', '0', '0']]",,0.0-5.0,,1,13.0,221,3.0,1,,,,,,,163069,64,7,Battleships,
6147733299655bdb3bd8ecec,614b4d7974d2745c4f6b1143,614a9c7e0714a6ab06bc69d6,2480,,,,False,,,,,,False,,,,0.0-6.0,,1,,221,,1,,,,5605.5,,,168676,64,8,instructions,"[{""page_index"":0,""viewing_time"":5604.700000047684}]"
6147733299655bdb3bd8ecec,614b4d7974d2745c4f6b1143,614a9c7e0714a6ab06bc69d6,2480,1.0,,,False,"{'i': [0, 1, 2, 3, 4, 4, 0, 0, 0, 1, 4, 3, 2, 1, 3, 2, 2, 3, 3, 4, 4, 2, 1, 0], 'j': [0, 0, 0, 0, 0, 1, 3, 2, 1, 1, 4, 4, 3, 3, 3, 2, 1, 1, 2, 2, 3, 4, 4, 4], 't': [7581.299999952316, 9251.399999976158, 10499.399999976158, 11815.299999952316, 13053.5, 14189.699999988079, 19197.5, 20775.69999998808, 21772.599999964237, 23070.69999998808, 25667.19999998808, 28010.799999952316, 36063.19999998808, 37706.69999998808, 39947.89999997616, 42535.39999997616, 43753, 48366.5, 50875.799999952316, 53327.89999997616, 54103.5, 55298.299999952316, 56554.799999952316, 57355.299999952316], 'hit': ['0', '0', '0', '0', '0', '0', '0', '0', '0', '0', '0', '0', 'A', '0', '0', 'A', 'A', '0', '0', 'C', 'C', '0', 'B', 'B']}",,,"[['sea', 'sea', 'sea', 'sea', 'ship'], ['sea', 'sea', 'unknown', 'sea', 'ship'], ['sea', 'ship', 'ship', 'ship', 'sea'], ['sea', 'sea', 'sea', 'sea', 'sea'], ['sea', 'sea', 'ship', 'ship', 'sea']]",,False,,"[['0', '0', '0', '0', 'B'], ['0', '0', '0', '0', 'B'], ['0', 'A', 'A', 'A', '0'], ['0', '0', '0', '0', '0'], ['0', '0', 'C', 'C', '0']]",3.0,0.0-7.0-0.0,,1,24.0,221,1.0,1,,,,,,pretend,228157,64,9,Battleships,
6147733299655bdb3bd8ecec,614b4d7974d2745c4f6b1143,614a9c7e0714a6ab06bc69d6,2480,,,,False,,,,,,False,,,,0.0-7.0-1.0,,1,,221,,1,,,,5057.900000035763,,,233218,64,10,instructions,"[{""page_index"":0,""viewing_time"":5057.100000023842}]"
6147733299655bdb3bd8ecec,614b4d7974d2745c4f6b1143,614a9c7e0714a6ab06bc69d6,2480,1.0,,,False,"{'i': [0, 1, 2, 3, 2, 3, 4, 3, 1, 1, 1, 0, 1, 2], 'j': [0, 0, 0, 2, 2, 3, 2, 4, 3, 2, 4, 1, 1, 1], 't': [4397.199999988079, 8284.199999988079, 10334.5, 13808.199999988079, 14863.899999976158, 16856.80000001192, 17843.599999964237, 20746.80000001192, 23866.599999964237, 24907.599999964237, 26031.399999976158, 38498.80000001192, 39341.30000001192, 40096.89999997616], 'hit': ['0', '0', '0', 'C', '0', '0', 'C', '0', 'B', '0', 'B', 'A', 'A', 'A']}",,,"[['sea', 'ship', 'unknown', 'unknown', 'unknown'], ['sea', 'ship', 'sea', 'ship', 'ship'], ['sea', 'ship', 'sea', 'unknown', 'unknown'], ['unknown', 'unknown', 'ship', 'sea', 'sea'], ['unknown', 'unknown', 'ship', 'unknown', 'unknown']]",,False,,"[['0', 'A', '0', '0', '0'], ['0', 'A', '0', 'B', 'B'], ['0', 'A', '0', '0', '0'], ['0', '0', 'C', '0', '0'], ['0', '0', 'C', '0', '0']]",8.0,0.0-7.0-0.1,,1,14.0,221,11.0,1,,,,,,pretend,275525,64,11,Battleships,
6147733299655bdb3bd8ecec,614b4d7974d2745c4f6b1143,614a9c7e0714a6ab06bc69d6,2480,,,,False,,,,,,False,,,,0.0-7.0-1.1,,1,,221,,1,,,,2244.399999976158,,,277772,64,12,instructions,"[{""page_index"":0,""viewing_time"":2243.899999976158}]"
6147733299655bdb3bd8ecec,614b4d7974d2745c4f6b1143,614a9c7e0714a6ab06bc69d6,2480,1.0,,,False,"{'i': [0, 2, 3, 4, 4, 4, 4, 2, 2, 1, 0, 3, 1, 0, 1, 2, 3, 2], 'j': [3, 3, 1, 1, 2, 0, 3, 0, 4, 4, 4, 4, 1, 1, 2, 2, 2, 1], 't': [4924.200000047684, 6824.700000047684, 8367.100000023842, 16033.5, 17317.100000023842, 18333.900000035763, 20074, 23252, 24807.400000035763, 26016.100000023842, 27031.900000035763, 28467.200000047684, 30430.400000035763, 31917.30000001192, 35025.5, 36000.700000047684, 37013.200000047684, 37788.700000047684], 'hit': ['0', '0', '0', 'C', '0', 'C', '0', '0', 'A', 'A', '0', 'A', '0', '0', '0', 'B', '0', 'B']}",,,"[['unknown', 'sea', 'unknown', 'sea', 'sea'], ['unknown', 'sea', 'sea', 'unknown', 'ship'], ['sea', 'ship', 'ship', 'sea', 'ship'], ['unknown', 'sea', 'sea', 'unknown', 'ship'], ['ship', 'ship', 'sea', 'sea', 'unknown']]",,False,,"[['0', '0', '0', '0', '0'], ['0', '0', '0', '0', 'A'], ['0', 'B', 'B', '0', 'A'], ['0', '0', '0', '0', 'A'], ['C', 'C', '0', '0', '0']]",0.0,0.0-7.0-0.2,,1,18.0,221,7.0,1,,,,,,pretend,317782,64,13,Battleships,
6147733299655bdb3bd8ecec,614b4d7974d2745c4f6b1143,614a9c7e0714a6ab06bc69d6,2480,,,,False,,,,,,False,,,,0.0-7.0-1.2,,1,,221,,1,,,,3985.399999976158,,,321770,64,14,instructions,"[{""page_index"":0,""viewing_time"":3984.199999988079}]"
6147733299655bdb3bd8ecec,614b4d7974d2745c4f6b1143,614a9c7e0714a6ab06bc69d6,2480,1.0,,,False,"{'i': [0, 1, 2, 3, 4, 4, 3, 2, 2, 3, 4, 0, 0, 0, 1, 3, 3, 2, 2], 'j': [0, 1, 2, 3, 4, 3, 4, 4, 3, 1, 1, 2, 3, 4, 3, 2, 0, 0, 1], 't': [1893.9000000357628, 3184.100000023842, 4168.300000011921, 5453.400000035763, 6619.699999988079, 7365.199999988079, 8280.900000035763, 9291.300000011921, 12409.5, 15553.400000035763, 16818.80000001192, 18771.900000035763, 19668.19999998808, 22777.400000035763, 23893, 26172.30000001192, 28061.30000001192, 28796.80000001192, 29439.30000001192], 'hit': ['0', '0', '0', '0', 'A', '0', 'A', 'A', '0', '0', '0', '0', 'B', '0', 'B', '0', '0', 'C', 'C']}",,,"[['sea', 'unknown', 'sea', 'ship', 'sea'], ['unknown', 'sea', 'unknown', 'ship', 'unknown'], ['ship', 'ship', 'sea', 'sea', 'ship'], ['sea', 'sea', 'sea', 'sea', 'ship'], ['unknown', 'sea', 'unknown', 'sea', 'ship']]",,False,,"[['0', '0', '0', 'B', '0'], ['0', '0', '0', 'B', '0'], ['C', 'C', '0', '0', 'A'], ['0', '0', '0', '0', 'A'], ['0', '0', '0', '0', 'A']]",6.0,0.0-7.0-0.3,,1,19.0,221,6.0,1,,,,,,pretend,353345,64,15,Battleships,
6147733299655bdb3bd8ecec,614b4d7974d2745c4f6b1143,614a9c7e0714a6ab06bc69d6,2480,,,,False,,,,,,False,,,,0.0-7.0-1.3,,1,,221,,1,,,,1437.199999988079,,,354784,64,16,instructions,"[{""page_index"":0,""viewing_time"":1436.699999988079}]"
6147733299655bdb3bd8ecec,614b4d7974d2745c4f6b1143,614a9c7e0714a6ab06bc69d6,2480,1.0,,,False,"{'i': [0, 1, 2, 2, 1, 3, 2, 2, 4, 4, 1, 1, 0, 0, 0, 0, 3, 4, 4], 'j': [4, 4, 3, 2, 2, 2, 1, 0, 1, 0, 1, 0, 2, 3, 1, 0, 4, 4, 3], 't': [2055.599999964237, 2852.599999964237, 3775.599999964237, 4602, 5472.300000011921, 6796.399999976158, 7383.199999988079, 8307.199999988079, 10935.5, 11589.199999988079, 12502.899999976158, 13138.099999964237, 15616.300000011921, 16908.30000001192, 17613.30000001192, 18464.099999964237, 19740.69999998808, 20719, 21732.899999976158], 'hit': ['0', '0', '0', 'A', '0', '0', 'A', 'A', '0', '0', '0', '0', '0', '0', 'B', 'B', '0', 'C', 'C']}",,,"[['ship', 'ship', 'sea', 'sea', 'sea'], ['sea', 'sea', 'sea', 'unknown', 'sea'], ['ship', 'ship', 'ship', 'sea', 'unknown'], ['unknown', 'unknown', 'sea', 'unknown', 'sea'], ['sea', 'sea', 'unknown', 'ship', 'ship']]",,False,,"[['B', 'B', '0', '0', '0'], ['0', '0', '0', '0', '0'], ['A', 'A', 'A', '0', '0'], ['0', '0', '0', '0', '0'], ['0', '0', '0', 'C', 'C']]",2.0,0.0-7.0-0.4,,1,19.0,221,6.0,1,,,,,,pretend,378719,64,17,Battleships,
6147733299655bdb3bd8ecec,614b4d7974d2745c4f6b1143,614a9c7e0714a6ab06bc69d6,2480,,,,False,,,,,,False,,,,0.0-7.0-1.4,,1,,221,,1,,,,1520.800000011921,,,380241,64,18,instructions,"[{""page_index"":0,""viewing_time"":1520.3999999761581}]"
6147733299655bdb3bd8ecec,614b4d7974d2745c4f6b1143,614a9c7e0714a6ab06bc69d6,2480,,,,False,,,,,,False,,,,0.0-8.0,,1,,221,,1,,,,14412.699999988079,,,394655,64,19,instructions,"[{""page_index"":0,""viewing_time"":14412.300000011921}]"
6147733299655bdb3bd8ecec,614b4d7974d2745c4f6b1143,614a9c7e0714a6ab06bc69d6,2480,0.0,,,False,"{'i': [2, 1, 3, 1, 0, 1, 1, 0, 0, 1, 3, 2], 'j': [2, 3, 1, 1, 1, 2, 0, 3, 4, 4, 3, 3], 't': [2833.699999988079, 7844.599999964237, 10119, 11941.699999988079, 14242.5, 16295.599999964237, 19285.19999998808, 26950.69999998808, 28270.19999998808, 29375.30000001192, 34494.19999998808, 37009.19999998808], 'hit': ['0', '0', '0', 'A', '0', 'A', 'A', '0', 'B', 'B', 'C', 'C']}",,,"[['unknown', 'sea', 'unknown', 'sea', 'ship'], ['ship', 'ship', 'ship', 'sea', 'ship'], ['unknown', 'unknown', 'sea', 'ship', 'unknown'], ['unknown', 'sea', 'unknown', 'ship', 'unknown'], ['unknown', 'unknown', 'unknown', 'unknown', 'unknown']]",,False,,"[['0', '0', '0', '0', 'B'], ['A', 'A', 'A', '0', 'B'], ['0', '0', '0', 'C', '0'], ['0', '0', '0', 'C', '0'], ['0', '0', '0', '0', '0']]",4.0,0.0-9.0-0.0,,1,12.0,221,13.0,1,,,,,,non-pretend,435482,64,20,Battleships,
6147733299655bdb3bd8ecec,614b4d7974d2745c4f6b1143,614a9c7e0714a6ab06bc69d6,2480,,,,False,,,,,,False,,,,0.0-9.0-1.0,,1,,221,,1,,,,3452.899999976158,,,438936,64,21,instructions,"[{""page_index"":0,""viewing_time"":3452.399999976158}]"
6147733299655bdb3bd8ecec,614b4d7974d2745c4f6b1143,614a9c7e0714a6ab06bc69d6,2480,0.0,,,False,"{'i': [1, 3, 3, 1, 0, 2, 1, 2, 3, 2, 2, 3, 2, 1, 4, 4, 4], 'j': [1, 3, 1, 3, 0, 2, 2, 3, 2, 1, 0, 4, 4, 4, 3, 1, 0], 't': [1888.800000011921, 3093.300000011921, 4880.100000023842, 5907, 7595.300000011921, 9060.900000035763, 10103.900000035763, 11415.200000047684, 12337.800000011921, 13274.100000023842, 14162.900000035763, 16979.400000035763, 18076.400000035763, 19101.700000047684, 21393.5, 22690.700000047684, 23748.600000023842], 'hit': ['0', '0', '0', '0', '0', 'B', '0', '0', '0', 'B', '0', 'A', 'A', 'A', '0', 'C', 'C']}",,,"[['sea', 'unknown', 'unknown', 'unknown', 'unknown'], ['unknown', 'sea', 'sea', 'sea', 'ship'], ['sea', 'ship', 'ship', 'sea', 'ship'], ['unknown', 'sea', 'sea', 'sea', 'ship'], ['ship', 'ship', 'unknown', 'sea', 'unknown']]",,False,,"[['0', '0', '0', '0', '0'], ['0', '0', '0', '0', 'A'], ['0', 'B', 'B', '0', 'A'], ['0', '0', '0', '0', 'A'], ['C', 'C', '0', '0', '0']]",0.0,0.0-9.0-0.1,,1,17.0,221,8.0,1,,,,,,non-pretend,464886,64,22,Battleships,
6147733299655bdb3bd8ecec,614b4d7974d2745c4f6b1143,614a9c7e0714a6ab06bc69d6,2480,,,,False,,,,,,False,,,,0.0-9.0-1.1,,1,,221,,1,,,,1886.699999988079,,,466774,64,23,instructions,"[{""page_index"":0,""viewing_time"":1886.300000011921}]"
6147733299655bdb3bd8ecec,614b4d7974d2745c4f6b1143,614a9c7e0714a6ab06bc69d6,2480,0.0,,,False,"{'i': [2, 2, 0, 0, 4, 3, 2, 4, 3, 2, 4, 3, 2], 'j': [1, 3, 4, 2, 2, 2, 2, 4, 4, 4, 0, 0, 0], 't': [3054, 4226.300000011921, 5514, 6823.199999988079, 8109.699999988079, 9632.399999976158, 10716.699999988079, 14527.600000023842, 15543.100000023842, 16568.80000001192, 18294.5, 19805.69999998808, 20761.30000001192], 'hit': ['0', '0', '0', '0', 'B', 'B', '0', 'A', 'A', 'A', '0', 'C', 'C']}",,,"[['unknown', 'unknown', 'sea', 'unknown', 'sea'], ['unknown', 'unknown', 'unknown', 'unknown', 'unknown'], ['ship', 'sea', 'sea', 'sea', 'ship'], ['ship', 'unknown', 'ship', 'unknown', 'ship'], ['sea', 'unknown', 'ship', 'unknown', 'ship']]",,False,,"[['0', '0', '0', '0', '0'], ['0', '0', '0', '0', '0'], ['C', '0', '0', '0', 'A'], ['C', '0', 'B', '0', 'A'], ['0', '0', 'B', '0', 'A']]",5.0,0.0-9.0-0.2,,1,13.0,221,12.0,1,,,,,,non-pretend,489646,64,24,Battleships,
6147733299655bdb3bd8ecec,614b4d7974d2745c4f6b1143,614a9c7e0714a6ab06bc69d6,2480,,,,False,,,,,,False,,,,0.0-9.0-1.2,,1,,221,,1,,,,1885.300000011921,,,491532,64,25,instructions,"[{""page_index"":0,""viewing_time"":1885}]"
6147733299655bdb3bd8ecec,614b4d7974d2745c4f6b1143,614a9c7e0714a6ab06bc69d6,2480,0.0,,,False,"{'i': [3, 2, 4, 3, 3, 2, 1, 1, 1, 0, 0, 1, 0, 3, 4, 4], 'j': [2, 2, 2, 1, 0, 3, 1, 3, 4, 3, 1, 0, 0, 4, 3, 4], 't': [1285.800000011921, 2346.5, 3293.099999964237, 4208.699999988079, 5127.800000011921, 8405, 10375.5, 11519.5, 12476.300000011921, 13351.5, 15499.399999976158, 16454, 17199.80000001192, 18697.599999964237, 22688.69999998808, 23936.19999998808], 'hit': ['A', '0', '0', 'A', 'A', '0', '0', 'C', '0', 'C', '0', '0', '0', '0', 'B', 'B']}",,,"[['sea', 'sea', 'unknown', 'ship', 'unknown'], ['sea', 'sea', 'unknown', 'ship', 'sea'], ['unknown', 'unknown', 'sea', 'sea', 'unknown'], ['ship', 'ship', 'ship', 'unknown', 'sea'], ['unknown', 'unknown', 'sea', 'ship', 'ship']]",,False,,"[['0', '0', '0', 'C', '0'], ['0', '0', '0', 'C', '0'], ['0', '0', '0', '0', '0'], ['A', 'A', 'A', '0', '0'], ['0', '0', '0', 'B', 'B']]",7.0,0.0-9.0-0.3,,1,16.0,221,9.0,1,,,,,,non-pretend,517852,64,26,Battleships,
6147733299655bdb3bd8ecec,614b4d7974d2745c4f6b1143,614a9c7e0714a6ab06bc69d6,2480,,,,False,,,,,,False,,,,0.0-9.0-1.3,,1,,221,,1,,,,1348.199999988079,,,519201,64,27,instructions,"[{""page_index"":0,""viewing_time"":1347.800000011921}]"
6147733299655bdb3bd8ecec,614b4d7974d2745c4f6b1143,614a9c7e0714a6ab06bc69d6,2480,0.0,,,False,"{'i': [0, 1, 0, 0, 2, 3, 2, 2, 1, 3, 2, 1, 4], 'j': [0, 0, 1, 2, 1, 1, 2, 0, 4, 3, 3, 3, 3], 't': [1773.699999988079, 3019.399999976158, 3644.399999976158, 4439.399999976158, 6653.600000023842, 7599.800000011921, 8423.800000011921, 9722.199999988079, 11866.100000023842, 12914.800000011921, 13819, 14697.5, 15771.600000023842], 'hit': ['C', '0', 'C', '0', 'B', '0', '0', 'B', '0', 'A', 'A', '0', 'A']}",,,"[['ship', 'ship', 'sea', 'unknown', 'unknown'], ['sea', 'unknown', 'unknown', 'sea', 'sea'], ['ship', 'ship', 'sea', 'ship', 'unknown'], ['unknown', 'sea', 'unknown', 'ship', 'unknown'], ['unknown', 'unknown', 'unknown', 'ship', 'unknown']]",,False,,"[['C', 'C', '0', '0', '0'], ['0', '0', '0', '0', '0'], ['B', 'B', '0', 'A', '0'], ['0', '0', '0', 'A', '0'], ['0', '0', '0', 'A', '0']]",1.0,0.0-9.0-0.4,,1,13.0,221,12.0,1,,,,,,non-pretend,537099,64,28,Battleships,
6147733299655bdb3bd8ecec,614b4d7974d2745c4f6b1143,614a9c7e0714a6ab06bc69d6,2480,,,,False,,,,,,False,,,,0.0-9.0-1.4,,1,,221,,1,,,,1896.2000000476837,,,538992,64,29,instructions,"[{""page_index"":0,""viewing_time"":1895.9000000357628}]"
6147733299655bdb3bd8ecec,614b4d7974d2745c4f6b1143,614a9c7e0714a6ab06bc69d6,2480,,,,False,,,,,,False,,,,0.0-10.0,,1,,221,,1,,,,15648.099999964237,,,554641,64,30,instructions,"[{""page_index"":0,""viewing_time"":9359.699999988079},{""page_index"":1,""viewing_time"":6287.899999976158}]"
6147733299655bdb3bd8ecec,614b4d7974d2745c4f6b1143,614a9c7e0714a6ab06bc69d6,2480,,217.0,right,False,,1.0,right,,,False,216.0,"[['0', '0', '0', '0', '0'], ['0', '0', '0', '0', 'A'], ['0', 'B', 'B', '0', 'A'], ['0', '0', '0', '0', 'A'], ['C', 'C', '0', '0', '0']]",0.0,0.0-11.0-0.0,left,1,,221,,1,,"['left', 'right']",,,,judge,624066,64,31,Battleships_replay_2players,
6147733299655bdb3bd8ecec,614b4d7974d2745c4f6b1143,614a9c7e0714a6ab06bc69d6,2480,,,,False,,,,,,False,,,,0.0-11.0-1.0,,1,,221,,1,,,,3226.5,,,627295,64,32,instructions,"[{""page_index"":0,""viewing_time"":3226.099999964237}]"
6147733299655bdb3bd8ecec,614b4d7974d2745c4f6b1143,614a9c7e0714a6ab06bc69d6,2480,,209.0,left,False,,0.0,right,,,False,220.0,"[['C', 'C', '0', '0', '0'], ['0', '0', '0', '0', '0'], ['B', 'B', '0', 'A', '0'], ['0', '0', '0', 'A', '0'], ['0', '0', '0', 'A', '0']]",1.0,0.0-11.0-0.1,right,1,,221,,1,,"['right', 'left']",,,,judge,674753,64,33,Battleships_replay_2players,
6147733299655bdb3bd8ecec,614b4d7974d2745c4f6b1143,614a9c7e0714a6ab06bc69d6,2480,,,,False,,,,,,False,,,,0.0-11.0-1.1,,1,,221,,1,,,,4603.0,,,679359,64,34,instructions,"[{""page_index"":0,""viewing_time"":4602.600000023842}]"
6147733299655bdb3bd8ecec,614b4d7974d2745c4f6b1143,614a9c7e0714a6ab06bc69d6,2480,,204.0,left,False,,0.0,right,,,False,218.0,"[['0', '0', '0', '0', 'B'], ['A', 'A', 'A', '0', 'B'], ['0', '0', '0', 'C', '0'], ['0', '0', '0', 'C', '0'], ['0', '0', '0', '0', '0']]",4.0,0.0-11.0-0.2,right,1,,221,,1,,"['left', 'right']",,,,judge,746493,64,35,Battleships_replay_2players,
6147733299655bdb3bd8ecec,614b4d7974d2745c4f6b1143,614a9c7e0714a6ab06bc69d6,2480,,,,False,,,,,,False,,,,0.0-11.0-1.2,,1,,221,,1,,,,1455.3999999761581,,,747952,64,36,instructions,"[{""page_index"":0,""viewing_time"":1455.0999999642372}]"
6147733299655bdb3bd8ecec,614b4d7974d2745c4f6b1143,614a9c7e0714a6ab06bc69d6,2480,,211.0,right,False,,0.0,left,,,False,215.0,"[['B', 'B', '0', '0', '0'], ['0', '0', '0', '0', '0'], ['A', 'A', 'A', '0', '0'], ['0', '0', '0', '0', '0'], ['0', '0', '0', 'C', 'C']]",2.0,0.0-11.0-0.3,left,1,,221,,1,,"['left', 'right']",,,,judge,796115,64,37,Battleships_replay_2players,
6147733299655bdb3bd8ecec,614b4d7974d2745c4f6b1143,614a9c7e0714a6ab06bc69d6,2480,,,,False,,,,,,False,,,,0.0-11.0-1.3,,1,,221,,1,,,,1541.1000000238419,,,797658,64,38,instructions,"[{""page_index"":0,""viewing_time"":1540.7000000476837}]"
6147733299655bdb3bd8ecec,614b4d7974d2745c4f6b1143,614a9c7e0714a6ab06bc69d6,2480,,207.0,left,False,,0.0,right,,,False,218.0,"[['0', '0', '0', '0', 'B'], ['0', '0', '0', '0', 'B'], ['0', 'A', 'A', 'A', '0'], ['0', '0', '0', '0', '0'], ['0', '0', 'C', 'C', '0']]",3.0,0.0-11.0-0.4,right,1,,221,,1,,"['left', 'left', 'right']",,,,judge,867662,64,39,Battleships_replay_2players,
6147733299655bdb3bd8ecec,614b4d7974d2745c4f6b1143,614a9c7e0714a6ab06bc69d6,2480,,,,False,,,,,,False,,,,0.0-11.0-1.4,,1,,221,,1,,,,1158.300000011921,,,868822,64,40,instructions,"[{""page_index"":0,""viewing_time"":1157.9000000357628}]"
6147733299655bdb3bd8ecec,614b4d7974d2745c4f6b1143,614a9c7e0714a6ab06bc69d6,2480,,,,False,,,,,,False,,,,0.0-12.0,,1,,221,,1,,,"{""worker_comments"":""""}",2872.399999976158,,,871698,64,41,survey-text,
6147733299655bdb3bd8ecec,614b4d7974d2745c4f6b1143,614a9c7e0714a6ab06bc69d6,2480,,,,False,,,,,,False,,,,0.0-13.0,,1,,221,,1,,,,9381.399999976158,,,881080,64,42,instructions,"[{""page_index"":0,""viewing_time"":9380.899999976158}]"
6148438e433098ea9accf395,614b4cffc4eb45dcea3d5759,614a9c7e0714a6ab06bc69d6,2480,,,,False,,,,,,True,,,,0.0-0.0,,1,,220,,1,,,,,1.0,,4629,69,0,fullscreen,
6148438e433098ea9accf395,614b4cffc4eb45dcea3d5759,614a9c7e0714a6ab06bc69d6,2480,,,,False,,,,,,True,,,,0.0-1.0-0.0,,1,,220,,1,,,,18490.5,,,23121,69,1,instructions,"[{""page_index"":0,""viewing_time"":1835.099998474121},{""page_index"":1,""viewing_time"":12163.900001525879},{""page_index"":2,""viewing_time"":1358.2999992370605},{""page_index"":3,""viewing_time"":3131.1000003814697}]"
6148438e433098ea9accf395,614b4cffc4eb45dcea3d5759,614a9c7e0714a6ab06bc69d6,2480,,,,False,,1.0,,,,True,,,,0.0-1.0-1.0,,1,,220,,1,[0],,"{""Q0"":""... sink all ships with as <b>few clicks</b> as possible""}",2366.2999992370605,,multichoice_nonpretend,25492,69,2,survey-multi-choice,
6148438e433098ea9accf395,614b4cffc4eb45dcea3d5759,614a9c7e0714a6ab06bc69d6,2480,,,,False,,,,,,True,,,,0.0-2.0,,1,,220,,1,,,,1652.3000011444092,,,27146,69,3,instructions,"[{""page_index"":0,""viewing_time"":1651.7000007629395}]"
6148438e433098ea9accf395,614b4cffc4eb45dcea3d5759,614a9c7e0714a6ab06bc69d6,2480,0.0,,,False,"{'i': [2, 3, 1, 1, 2, 1], 'j': [0, 0, 0, 2, 2, 3], 't': [636.3999996185303, 1098.2999992370605, 1801.3999996185303, 2986.7999992370605, 3399.199998855591, 3991.1000003814697], 'hit': ['A', '0', 'A', 'B', '0', 'B']}",,,"[['unknown', 'unknown', 'unknown', 'unknown'], ['ship', 'unknown', 'ship', 'ship'], ['ship', 'unknown', 'sea', 'unknown'], ['sea', 'unknown', 'unknown', 'unknown']]",,True,,"[['0', '0', '0', '0'], ['A', '0', 'B', 'B'], ['A', '0', '0', '0'], ['0', '0', '0', '0']]",,0.0-3.0,,1,6.0,220,10.0,1,,,,,,,33283,69,4,Battleships,
6148438e433098ea9accf395,614b4cffc4eb45dcea3d5759,614a9c7e0714a6ab06bc69d6,2480,,,,False,,,,,,True,,,,0.0-4.0,,1,,220,,1,,,,1635.3999996185303,,,34921,69,5,instructions,"[{""page_index"":0,""viewing_time"":1634.6000003814697}]"
6148438e433098ea9accf395,614b4cffc4eb45dcea3d5759,614a9c7e0714a6ab06bc69d6,2480,0.0,,,False,"{'i': [0, 1, 2, 3, 4, 3, 3, 4, 2, 0, 3, 3, 4, 4, 1, 0, 0, 1, 2, 2], 'j': [0, 1, 2, 3, 4, 4, 2, 3, 3, 1, 0, 1, 0, 1, 3, 3, 4, 4, 1, 0], 't': [1751.6000003814697, 2486.6000003814697, 2947.7000007629395, 3382.3999996185303, 3816.8999996185303, 4521.39999961853, 5233, 5856.39999961853, 6497.89999961853, 7941.39999961853, 9396.10000038147, 9787.29999923706, 10226.5, 10671.70000076294, 11456.39999961853, 11987.89999961853, 12526.60000038147, 13616.10000038147, 15126.5, 15511.5], 'hit': ['C', '0', '0', 'A', '0', '0', '0', 'A', 'A', 'C', '0', '0', '0', '0', '0', '0', '0', '0', 'B', 'B']}",,,"[['ship', 'ship', 'unknown', 'sea', 'sea'], ['unknown', 'sea', 'unknown', 'sea', 'sea'], ['ship', 'ship', 'sea', 'ship', 'unknown'], ['sea', 'sea', 'sea', 'ship', 'sea'], ['sea', 'sea', 'unknown', 'ship', 'sea']]",,True,,"[['C', 'C', '0', '0', '0'], ['0', '0', '0', '0', '0'], ['B', 'B', '0', 'A', '0'], ['0', '0', '0', 'A', '0'], ['0', '0', '0', 'A', '0']]",1.0,0.0-5.0-0.0,,1,20.0,220,5.0,1,,,,,,non-pretend,52645,69,6,Battleships,
6148438e433098ea9accf395,614b4cffc4eb45dcea3d5759,614a9c7e0714a6ab06bc69d6,2480,,,,False,,,,,,True,,,,0.0-5.0-1.0,,1,,220,,1,,,,2279.1000003814697,,,54928,69,7,instructions,"[{""page_index"":0,""viewing_time"":2278.3999996185303}]"
6148438e433098ea9accf395,614b4cffc4eb45dcea3d5759,614a9c7e0714a6ab06bc69d6,2480,0.0,,,False,"{'i': [0, 1, 2, 3, 4, 3, 4, 4, 3, 1, 2, 2, 2, 0], 'j': [0, 1, 2, 3, 4, 4, 3, 2, 2, 2, 3, 1, 0, 1], 't': [3175.5, 3629.3999996185303, 4029.6000003814697, 4475.800001144409, 4949.39999961853, 5725.60000038147, 6619.200000762939, 7126, 8404.20000076294, 9149.5, 9769.5, 11274.20000076294, 12215.5, 13500.5], 'hit': ['B', '0', 'A', '0', 'C', '0', 'C', '0', '0', '0', '0', 'A', 'A', 'B']}",,,"[['ship', 'ship', 'unknown', 'unknown', 'unknown'], ['unknown', 'sea', 'sea', 'unknown', 'unknown'], ['ship', 'ship', 'ship', 'sea', 'unknown'], ['unknown', 'unknown', 'sea', 'sea', 'sea'], ['unknown', 'unknown', 'sea', 'ship', 'ship']]",,True,,"[['B', 'B', '0', '0', '0'], ['0', '0', '0', '0', '0'], ['A', 'A', 'A', '0', '0'], ['0', '0', '0', '0', '0'], ['0', '0', '0', 'C', 'C']]",2.0,0.0-5.0-0.1,,1,14.0,220,11.0,1,,,,,,non-pretend,70604,69,8,Battleships,
6148438e433098ea9accf395,614b4cffc4eb45dcea3d5759,614a9c7e0714a6ab06bc69d6,2480,,,,False,,,,,,True,,,,0.0-5.0-1.1,,1,,220,,1,,,,1100.6000003814697,,,71707,69,9,instructions,"[{""page_index"":0,""viewing_time"":1099.8999996185303}]"
6148438e433098ea9accf395,614b4cffc4eb45dcea3d5759,614a9c7e0714a6ab06bc69d6,2480,0.0,,,False,"{'i': [0, 1, 2, 3, 4, 1, 0, 0, 2, 4, 4, 4, 3, 1, 1], 'j': [0, 1, 2, 3, 4, 2, 2, 1, 1, 2, 3, 1, 2, 3, 4], 't': [2411.7999992370605, 2789.699998855591, 3184.5, 3599.699998855591, 4039.2999992370605, 4769.599998474121, 5380.599998474121, 6124.299999237061, 7609.299999237061, 8795.89999961853, 9645, 10169.89999961853, 10914.79999923706, 12459.29999923706, 12936], 'hit': ['0', 'A', '0', '0', '0', '0', '0', 'A', 'A', 'C', '0', '0', 'C', 'B', 'B']}",,,"[['sea', 'ship', 'sea', 'unknown', 'unknown'], ['unknown', 'ship', 'sea', 'ship', 'ship'], ['unknown', 'ship', 'sea', 'unknown', 'unknown'], ['unknown', 'unknown', 'ship', 'sea', 'unknown'], ['unknown', 'sea', 'ship', 'sea', 'sea']]",,True,,"[['0', 'A', '0', '0', '0'], ['0', 'A', '0', 'B', 'B'], ['0', 'A', '0', '0', '0'], ['0', '0', 'C', '0', '0'], ['0', '0', 'C', '0', '0']]",8.0,0.0-5.0-0.2,,1,15.0,220,10.0,1,,,,,,non-pretend,86805,69,10,Battleships,
6148438e433098ea9accf395,614b4cffc4eb45dcea3d5759,614a9c7e0714a6ab06bc69d6,2480,,,,False,,,,,,True,,,,0.0-5.0-1.2,,1,,220,,1,,,,890.3999996185303,,,87696,69,11,instructions,"[{""page_index"":0,""viewing_time"":889.7999992370605}]"
6148438e433098ea9accf395,614b4cffc4eb45dcea3d5759,614a9c7e0714a6ab06bc69d6,2480,0.0,,,False,"{'i': [4, 3, 2, 1, 0, 0, 1, 2, 3, 4, 3, 2, 3, 4, 2, 1, 2, 3], 'j': [0, 1, 2, 3, 4, 0, 1, 3, 3, 4, 4, 4, 2, 2, 0, 0, 1, 0], 't': [890.2000007629395, 1379.1000003814697, 1794, 2225.400001525879, 2790, 3618.6000003814697, 4040.400001525879, 4629.200000762939, 5302.900001525879, 5743.60000038147, 6509.10000038147, 7309.700000762939, 8448.60000038147, 8864.10000038147, 10128.5, 10613.60000038147, 11288, 12088.10000038147], 'hit': ['0', '0', '0', '0', '0', '0', '0', '0', '0', 'A', 'A', 'A', 'B', 'B', 'C', '0', '0', 'C']}",,,"[['sea', 'unknown', 'unknown', 'unknown', 'sea'], ['sea', 'sea', 'unknown', 'sea', 'unknown'], ['ship', 'sea', 'sea', 'sea', 'ship'], ['ship', 'sea', 'ship', 'sea', 'ship'], ['sea', 'unknown', 'ship', 'unknown', 'ship']]",,True,,"[['0', '0', '0', '0', '0'], ['0', '0', '0', '0', '0'], ['C', '0', '0', '0', 'A'], ['C', '0', 'B', '0', 'A'], ['0', '0', 'B', '0', 'A']]",5.0,0.0-5.0-0.3,,1,18.0,220,7.0,1,,,,,,non-pretend,101935,69,12,Battleships,
6148438e433098ea9accf395,614b4cffc4eb45dcea3d5759,614a9c7e0714a6ab06bc69d6,2480,,,,False,,,,,,True,,,,0.0-5.0-1.3,,1,,220,,1,,,,781.3999996185303,,,102718,69,13,instructions,"[{""page_index"":0,""viewing_time"":780.8999996185303}]"
6148438e433098ea9accf395,614b4cffc4eb45dcea3d5759,614a9c7e0714a6ab06bc69d6,2480,0.0,,,False,"{'i': [0, 1, 2, 3, 4, 2, 3, 4, 4, 0, 1, 1, 1, 0, 2, 3, 4, 3, 3], 'j': [0, 1, 2, 3, 4, 4, 4, 3, 2, 4, 3, 2, 4, 3, 3, 1, 0, 0, 2], 't': [1135.3999996185303, 1541.6999988555908, 2035.2999992370605, 2465.7999992370605, 2915.6000003814697, 4076.3999996185303, 5835.699998855591, 6635.89999961853, 7141.39999961853, 8721.60000038147, 9151.60000038147, 10082.69999885559, 10461.5, 11221.79999923706, 11555.39999961853, 12741.89999961853, 13353, 13971.89999961853, 14805.60000038147], 'hit': ['0', '0', '0', '0', 'B', '0', '0', 'B', '0', '0', 'C', '0', '0', 'C', '0', 'A', '0', 'A', 'A']}",,,"[['sea', 'unknown', 'unknown', 'ship', 'sea'], ['unknown', 'sea', 'sea', 'ship', 'sea'], ['unknown', 'unknown', 'sea', 'sea', 'sea'], ['ship', 'ship', 'ship', 'sea', 'sea'], ['sea', 'unknown', 'sea', 'ship', 'ship']]",,True,,"[['0', '0', '0', 'C', '0'], ['0', '0', '0', 'C', '0'], ['0', '0', '0', '0', '0'], ['A', 'A', 'A', '0', '0'], ['0', '0', '0', 'B', 'B']]",7.0,0.0-5.0-0.4,,1,19.0,220,6.0,1,,,,,,non-pretend,119699,69,14,Battleships,
6148438e433098ea9accf395,614b4cffc4eb45dcea3d5759,614a9c7e0714a6ab06bc69d6,2480,,,,False,,,,,,True,,,,0.0-5.0-1.4,,1,,220,,1,,,,1291.6000003814697,,,120993,69,15,instructions,"[{""page_index"":0,""viewing_time"":1290.7999992370605}]"
6148438e433098ea9accf395,614b4cffc4eb45dcea3d5759,614a9c7e0714a6ab06bc69d6,2480,,,,False,,,,,,True,,,,0.0-6.0-0.0,,1,,220,,1,,,,6883.0,,,127878,69,16,instructions,"[{""page_index"":0,""viewing_time"":2892.199998855591},{""page_index"":1,""viewing_time"":1759.900001525879},{""page_index"":2,""viewing_time"":1224.8999996185303},{""page_index"":3,""viewing_time"":1005.1999988555908}]"
6148438e433098ea9accf395,614b4cffc4eb45dcea3d5759,614a9c7e0714a6ab06bc69d6,2480,,,,False,,1.0,,,,True,,,,0.0-6.0-1.0,,1,,220,,1,[0],,"{""Q0"":""... play the game as if the cross hints <b>were not there</b> so that I look like someone who <b>had no hints</b>""}",2226.7999992370605,,multichoice_pretend,130109,69,17,survey-multi-choice,
6148438e433098ea9accf395,614b4cffc4eb45dcea3d5759,614a9c7e0714a6ab06bc69d6,2480,1.0,,,False,"{'i': [0, 1, 2, 3, 2, 3, 1, 0, 3, 1, 3], 'j': [0, 1, 2, 3, 3, 2, 2, 2, 1, 0, 0], 't': [1828.2999992370605, 2257.7999992370605, 2699, 3177.7999992370605, 3599.2999992370605, 5069.39999961853, 5708, 6619, 7913, 9978.10000038147, 10555.19999885559], 'hit': ['0', '0', 'B', '0', '0', '0', 'B', '0', 'A', '0', 'A']}",,,"[['sea', 'unknown', 'sea', 'unknown'], ['sea', 'sea', 'ship', 'unknown'], ['unknown', 'unknown', 'ship', 'sea'], ['ship', 'ship', 'sea', 'sea']]",,True,,"[['0', '0', '0', '0'], ['0', '0', 'B', '0'], ['0', '0', 'B', '0'], ['A', 'A', '0', '0']]",,0.0-7.0,,1,11.0,220,5.0,1,,,,,,,142838,69,18,Battleships,
6148438e433098ea9accf395,614b4cffc4eb45dcea3d5759,614a9c7e0714a6ab06bc69d6,2480,,,,False,,,,,,True,,,,0.0-8.0,,1,,220,,1,,,,1629.0,,,144468,69,19,instructions,"[{""page_index"":0,""viewing_time"":1628.2999992370605}]"
6148438e433098ea9accf395,614b4cffc4eb45dcea3d5759,614a9c7e0714a6ab06bc69d6,2480,1.0,,,False,"{'i': [0, 1, 2, 3, 4, 4, 3, 2, 4, 3, 1, 0, 1, 0, 3, 2, 2], 'j': [0, 1, 2, 3, 4, 3, 4, 4, 0, 1, 3, 4, 2, 3, 0, 0, 1], 't': [1297.2000007629395, 1862.400001525879, 2324.6000003814697, 2762.300001144409, 3242.400001525879, 4092.400001525879, 4808.900001525879, 5402.10000038147, 7922.5, 8302.10000038147, 8962.80000114441, 9460.70000076294, 11122.70000076294, 11557.20000076294, 16017.900001525879, 17577.10000038147, 18437.5], 'hit': ['0', '0', '0', '0', 'A', '0', 'A', 'A', '0', '0', 'B', '0', '0', 'B', '0', 'C', 'C']}",,,"[['sea', 'unknown', 'unknown', 'ship', 'sea'], ['unknown', 'sea', 'sea', 'ship', 'unknown'], ['ship', 'ship', 'sea', 'unknown', 'ship'], ['sea', 'sea', 'unknown', 'sea', 'ship'], ['sea', 'unknown', 'unknown', 'sea', 'ship']]",,True,,"[['0', '0', '0', 'B', '0'], ['0', '0', '0', 'B', '0'], ['C', 'C', '0', '0', 'A'], ['0', '0', '0', '0', 'A'], ['0', '0', '0', '0', 'A']]",6.0,0.0-9.0-0.0,,1,17.0,220,8.0,1,,,,,,pretend,165069,69,20,Battleships,
6148438e433098ea9accf395,614b4cffc4eb45dcea3d5759,614a9c7e0714a6ab06bc69d6,2480,,,,False,,,,,,True,,,,0.0-9.0-1.0,,1,,220,,1,,,,933.2999992370605,,,166004,69,21,instructions,"[{""page_index"":0,""viewing_time"":932.5}]"
6148438e433098ea9accf395,614b4cffc4eb45dcea3d5759,614a9c7e0714a6ab06bc69d6,2480,1.0,,,False,"{'i': [0, 1, 2, 3, 4, 4, 2, 2, 4, 3, 1, 0, 2, 3, 4, 4, 0, 1, 2, 3], 'j': [0, 1, 2, 3, 3, 4, 1, 3, 0, 1, 3, 4, 0, 0, 1, 2, 1, 4, 4, 4], 't': [980.5, 1380.6999988555908, 1796.1000003814697, 2200.1000003814697, 2689.6000003814697, 3415.699998855591, 5334.89999961853, 6459.799999237061, 8879.69999885559, 9279.69999885559, 9917.29999923706, 10450.69999885559, 11201.39999961853, 12102.10000038147, 12744.89999961853, 13749.89999961853, 17070.19999885559, 17942.29999923706, 18360.29999923706, 18790.79999923706], 'hit': ['0', '0', 'B', '0', '0', '0', 'B', '0', 'C', '0', '0', '0', '0', '0', 'C', '0', '0', 'A', 'A', 'A']}",,,"[['sea', 'sea', 'unknown', 'unknown', 'sea'], ['unknown', 'sea', 'unknown', 'sea', 'ship'], ['sea', 'ship', 'ship', 'sea', 'ship'], ['sea', 'sea', 'unknown', 'sea', 'ship'], ['ship', 'ship', 'sea', 'sea', 'sea']]",,True,,"[['0', '0', '0', '0', '0'], ['0', '0', '0', '0', 'A'], ['0', 'B', 'B', '0', 'A'], ['0', '0', '0', '0', 'A'], ['C', 'C', '0', '0', '0']]",0.0,0.0-9.0-0.1,,1,20.0,220,5.0,1,,,,,,pretend,186969,69,22,Battleships,
6148438e433098ea9accf395,614b4cffc4eb45dcea3d5759,614a9c7e0714a6ab06bc69d6,2480,,,,False,,,,,,True,,,,0.0-9.0-1.1,,1,,220,,1,,,,743.9000015258789,,,187715,69,23,instructions,"[{""page_index"":0,""viewing_time"":742.8000011444092}]"
6148438e433098ea9accf395,614b4cffc4eb45dcea3d5759,614a9c7e0714a6ab06bc69d6,2480,1.0,,,False,"{'i': [0, 1, 2, 3, 4, 4, 3, 2, 1, 0, 3, 4, 0, 1, 2, 1, 2, 1], 'j': [0, 1, 2, 3, 4, 3, 4, 3, 3, 4, 1, 0, 3, 4, 4, 0, 0, 2], 't': [1007.7999992370605, 1427.7999992370605, 1807.8999996185303, 2208.199998855591, 2662.699998855591, 4958, 6592.89999961853, 7708, 8762.79999923706, 12586.79999923706, 13147.39999961853, 14013.19999885559, 16216.89999961853, 16657, 17647.39999961853, 21399, 22073, 22587.10000038147], 'hit': ['0', 'A', '0', 'C', '0', '0', '0', 'C', '0', 'B', '0', '0', '0', 'B', '0', 'A', '0', 'A']}",,,"[['sea', 'unknown', 'unknown', 'sea', 'ship'], ['ship', 'ship', 'ship', 'sea', 'ship'], ['sea', 'unknown', 'sea', 'ship', 'sea'], ['unknown', 'sea', 'unknown', 'ship', 'sea'], ['sea', 'unknown', 'unknown', 'sea', 'sea']]",,True,,"[['0', '0', '0', '0', 'B'], ['A', 'A', 'A', '0', 'B'], ['0', '0', '0', 'C', '0'], ['0', '0', '0', 'C', '0'], ['0', '0', '0', '0', '0']]",4.0,0.0-9.0-0.2,,1,18.0,220,7.0,1,,,,,,pretend,212472,69,24,Battleships,
6148438e433098ea9accf395,614b4cffc4eb45dcea3d5759,614a9c7e0714a6ab06bc69d6,2480,,,,False,,,,,,True,,,,0.0-9.0-1.2,,1,,220,,1,,,,1650.599998474121,,,214124,69,25,instructions,"[{""page_index"":0,""viewing_time"":1650}]"
6148438e433098ea9accf395,614b4cffc4eb45dcea3d5759,614a9c7e0714a6ab06bc69d6,2480,1.0,,,False,"{'i': [1, 0, 1, 2, 3, 4, 3, 4, 4, 1, 0, 0, 2, 2, 2], 'j': [0, 0, 1, 2, 3, 4, 4, 3, 2, 2, 1, 2, 3, 1, 0], 't': [1177.1000003814697, 1535.2999992370605, 1949.3999996185303, 2345.5, 2791.2000007629395, 3264.7000007629395, 5149.60000038147, 6104.39999961853, 7361.60000038147, 10259.29999923706, 13404.39999961853, 14174.5, 15744.39999961853, 16689.79999923706, 17239.79999923706], 'hit': ['0', 'B', '0', 'A', '0', 'C', '0', 'C', '0', '0', 'B', '0', '0', 'A', 'A']}",,,"[['ship', 'ship', 'sea', 'unknown', 'unknown'], ['sea', 'sea', 'sea', 'unknown', 'unknown'], ['ship', 'ship', 'ship', 'sea', 'unknown'], ['unknown', 'unknown', 'unknown', 'sea', 'sea'], ['unknown', 'unknown', 'sea', 'ship', 'ship']]",,True,,"[['B', 'B', '0', '0', '0'], ['0', '0', '0', '0', '0'], ['A', 'A', 'A', '0', '0'], ['0', '0', '0', '0', '0'], ['0', '0', '0', 'C', 'C']]",2.0,0.0-9.0-0.3,,1,15.0,220,10.0,1,,,,,,pretend,233547,69,26,Battleships,
6148438e433098ea9accf395,614b4cffc4eb45dcea3d5759,614a9c7e0714a6ab06bc69d6,2480,,,,False,,,,,,True,,,,0.0-9.0-1.3,,1,,220,,1,,,,758.2000007629395,,,234308,69,27,instructions,"[{""page_index"":0,""viewing_time"":757.4000015258789}]"
6148438e433098ea9accf395,614b4cffc4eb45dcea3d5759,614a9c7e0714a6ab06bc69d6,2480,1.0,,,False,"{'i': [0, 1, 3, 2, 4, 1, 1, 2, 2, 2, 0, 3, 4, 1, 0, 2, 4, 4, 4], 'j': [0, 1, 3, 2, 4, 3, 2, 3, 4, 1, 4, 1, 0, 4, 2, 0, 2, 1, 3], 't': [803.8000011444092, 1233.900001525879, 1668.6000003814697, 2147.300001144409, 2727.800001144409, 4173.200000762939, 5124.300001144409, 6724.5, 7997.60000038147, 9032.70000076294, 12037.400001525879, 12872.5, 13297.70000076294, 14817.900001525879, 17457.40000152588, 19392.60000038147, 22542.5, 23392.60000038147, 23854.5], 'hit': ['0', '0', '0', 'A', '0', '0', '0', 'A', '0', 'A', 'B', '0', '0', 'B', '0', '0', 'C', '0', 'C']}",,,"[['sea', 'unknown', 'sea', 'unknown', 'ship'], ['unknown', 'sea', 'sea', 'sea', 'ship'], ['sea', 'ship', 'ship', 'ship', 'sea'], ['unknown', 'sea', 'unknown', 'sea', 'unknown'], ['sea', 'sea', 'ship', 'ship', 'sea']]",,True,,"[['0', '0', '0', '0', 'B'], ['0', '0', '0', '0', 'B'], ['0', 'A', 'A', 'A', '0'], ['0', '0', '0', '0', '0'], ['0', '0', 'C', 'C', '0']]",3.0,0.0-9.0-0.4,,1,19.0,220,6.0,1,,,,,,pretend,260334,69,28,Battleships,
6148438e433098ea9accf395,614b4cffc4eb45dcea3d5759,614a9c7e0714a6ab06bc69d6,2480,,,,False,,,,,,True,,,,0.0-9.0-1.4,,1,,220,,1,,,,2075.5,,,262412,69,29,instructions,"[{""page_index"":0,""viewing_time"":2074.7999992370605}]"
6148438e433098ea9accf395,614b4cffc4eb45dcea3d5759,614a9c7e0714a6ab06bc69d6,2480,,,,False,,,,,,True,,,,0.0-10.0,,1,,220,,1,,,,3693.7000007629395,,,266107,69,30,instructions,"[{""page_index"":0,""viewing_time"":1955.2999992370605},{""page_index"":1,""viewing_time"":1737.7000007629395}]"
6148438e433098ea9accf395,614b4cffc4eb45dcea3d5759,614a9c7e0714a6ab06bc69d6,2480,,207.0,right,False,,0.0,left,,,True,218.0,"[['0', '0', '0', '0', 'B'], ['0', '0', '0', '0', 'B'], ['0', 'A', 'A', 'A', '0'], ['0', '0', '0', '0', '0'], ['0', '0', 'C', 'C', '0']]",3.0,0.0-11.0-0.0,left,1,,220,,1,,"['left', 'right']",,,,judge,317917,69,31,Battleships_replay_2players,
6148438e433098ea9accf395,614b4cffc4eb45dcea3d5759,614a9c7e0714a6ab06bc69d6,2480,,,,False,,,,,,True,,,,0.0-11.0-1.0,,1,,220,,1,,,,3474.099998474121,,,321393,69,32,instructions,"[{""page_index"":0,""viewing_time"":3473.2999992370605}]"
6148438e433098ea9accf395,614b4cffc4eb45dcea3d5759,614a9c7e0714a6ab06bc69d6,2480,,207.0,left,False,,1.0,left,,,True,218.0,"[['B', 'B', '0', '0', '0'], ['0', '0', '0', '0', '0'], ['A', 'A', 'A', '0', '0'], ['0', '0', '0', '0', '0'], ['0', '0', '0', 'C', 'C']]",2.0,0.0-11.0-0.1,right,1,,220,,1,,"['left', 'right']",,,,judge,378648,69,33,Battleships_replay_2players,
6148438e433098ea9accf395,614b4cffc4eb45dcea3d5759,614a9c7e0714a6ab06bc69d6,2480,,,,False,,,,,,True,,,,0.0-11.0-1.1,,1,,220,,1,,,,2399.3999996185303,,,381050,69,34,instructions,"[{""page_index"":0,""viewing_time"":2399}]"
6148438e433098ea9accf395,614b4cffc4eb45dcea3d5759,614a9c7e0714a6ab06bc69d6,2480,,214.0,right,False,,1.0,right,,,True,215.0,"[['C', 'C', '0', '0', '0'], ['0', '0', '0', '0', '0'], ['B', 'B', '0', 'A', '0'], ['0', '0', '0', 'A', '0'], ['0', '0', '0', 'A', '0']]",1.0,0.0-11.0-0.2,left,1,,220,,1,,"['left', 'right']",,,,judge,446708,69,35,Battleships_replay_2players,
6148438e433098ea9accf395,614b4cffc4eb45dcea3d5759,614a9c7e0714a6ab06bc69d6,2480,,,,False,,,,,,True,,,,0.0-11.0-1.2,,1,,220,,1,,,,2109.7999992370605,,,448820,69,36,instructions,"[{""page_index"":0,""viewing_time"":2109.2000007629395}]"
6148438e433098ea9accf395,614b4cffc4eb45dcea3d5759,614a9c7e0714a6ab06bc69d6,2480,,207.0,left,False,,1.0,left,,,True,218.0,"[['0', '0', '0', '0', 'B'], ['A', 'A', 'A', '0', 'B'], ['0', '0', '0', 'C', '0'], ['0', '0', '0', 'C', '0'], ['0', '0', '0', '0', '0']]",4.0,0.0-11.0-0.3,right,1,,220,,1,,"['left', 'right', 'right']",,,,judge,504083,69,37,Battleships_replay_2players,
6148438e433098ea9accf395,614b4cffc4eb45dcea3d5759,614a9c7e0714a6ab06bc69d6,2480,,,,False,,,,,,True,,,,0.0-11.0-1.3,,1,,220,,1,,,,2053.2999992370605,,,506137,69,38,instructions,"[{""page_index"":0,""viewing_time"":2052.7999992370605}]"
6148438e433098ea9accf395,614b4cffc4eb45dcea3d5759,614a9c7e0714a6ab06bc69d6,2480,,217.0,left,False,,0.0,right,,,True,210.0,"[['0', '0', '0', '0', '0'], ['0', '0', '0', '0', 'A'], ['0', 'B', 'B', '0', 'A'], ['0', '0', '0', '0', 'A'], ['C', 'C', '0', '0', '0']]",0.0,0.0-11.0-0.4,right,1,,220,,1,,"['left', 'right', 'left']",,,,judge,572644,69,39,Battleships_replay_2players,
6148438e433098ea9accf395,614b4cffc4eb45dcea3d5759,614a9c7e0714a6ab06bc69d6,2480,,,,False,,,,,,True,,,,0.0-11.0-1.4,,1,,220,,1,,,,1872.8999996185303,,,574518,69,40,instructions,"[{""page_index"":0,""viewing_time"":1872.3000011444092}]"
6148438e433098ea9accf395,614b4cffc4eb45dcea3d5759,614a9c7e0714a6ab06bc69d6,2480,,,,False,,,,,,True,,,,0.0-12.0,,1,,220,,1,,,"{""worker_comments"":""""}",3048.1000003814697,,,577588,69,41,survey-text,
6148438e433098ea9accf395,614b4cffc4eb45dcea3d5759,614a9c7e0714a6ab06bc69d6,2480,,,,False,,,,,,True,,,,0.0-13.0,,1,,220,,1,,,,7073.89999961853,,,584664,69,42,instructions,"[{""page_index"":0,""viewing_time"":7073.10000038147}]"
5c881efa0ae44f001539a05b,614b4d0ec8217d5a6b17cfbb,614a9c7e0714a6ab06bc69d6,2480,,,,False,,,,,,False,,,,0.0-0.0,,1,,219,,1,,,,,1.0,,21610,91,0,fullscreen,
5c881efa0ae44f001539a05b,614b4d0ec8217d5a6b17cfbb,614a9c7e0714a6ab06bc69d6,2480,,,,False,,,,,,False,,,,0.0-1.0-0.0,,1,,219,,1,,,,55160.680000000866,,,76775,91,1,instructions,"[{""page_index"":0,""viewing_time"":8694.51499999559},{""page_index"":1,""viewing_time"":25084.98499999405},{""page_index"":2,""viewing_time"":11082.080000007409},{""page_index"":3,""viewing_time"":10298.295000000508}]"
5c881efa0ae44f001539a05b,614b4d0ec8217d5a6b17cfbb,614a9c7e0714a6ab06bc69d6,2480,,,,False,,1.0,,,,False,,,,0.0-1.0-1.0,,1,,219,,1,[0],,"{""Q0"":""... sink all ships with as <b>few clicks</b> as possible""}",9567.320000001928,,multichoice_nonpretend,86345,91,2,survey-multi-choice,
5c881efa0ae44f001539a05b,614b4d0ec8217d5a6b17cfbb,614a9c7e0714a6ab06bc69d6,2480,,,,False,,,,,,False,,,,0.0-2.0,,1,,219,,1,,,,4505.434999999125,,,90855,91,3,instructions,"[{""page_index"":0,""viewing_time"":4505.150000011781}]"
5c881efa0ae44f001539a05b,614b4d0ec8217d5a6b17cfbb,614a9c7e0714a6ab06bc69d6,2480,0.0,,,False,"{'i': [2, 1, 0, 1, 3, 3, 1, 0, 2, 0, 2, 1], 'j': [2, 1, 2, 0, 1, 3, 3, 3, 3, 0, 0, 2], 't': [1433.8900000002468, 3501.7100000113714, 4726.1600000056205, 6335.190000012517, 10096.845000007306, 11006.755000009434, 11740.94000000332, 13325.145000009798, 13894.200000009732, 15079.850000009174, 15747.180000005756, 16367.480000000796], 'hit': ['0', '0', '0', 'A', '0', '0', 'B', '0', '0', '0', 'A', 'B']}",,,"[['sea', 'unknown', 'sea', 'sea'], ['ship', 'sea', 'ship', 'ship'], ['ship', 'unknown', 'sea', 'sea'], ['unknown', 'sea', 'unknown', 'sea']]",,False,,"[['0', '0', '0', '0'], ['A', '0', 'B', 'B'], ['A', '0', '0', '0'], ['0', '0', '0', '0']]",,0.0-3.0,,1,12.0,219,4.0,1,,,,,,,109352,91,4,Battleships,
5c881efa0ae44f001539a05b,614b4d0ec8217d5a6b17cfbb,614a9c7e0714a6ab06bc69d6,2480,,,,False,,,,,,False,,,,0.0-4.0-0.0,,1,,219,,1,,,,27330.18499999889,,,136684,91,5,instructions,"[{""page_index"":0,""viewing_time"":1887.0949999982258},{""page_index"":1,""viewing_time"":5420.3899999993155},{""page_index"":2,""viewing_time"":9629.26499999594},{""page_index"":3,""viewing_time"":10393.130000011297}]"
5c881efa0ae44f001539a05b,614b4d0ec8217d5a6b17cfbb,614a9c7e0714a6ab06bc69d6,2480,,,,False,,1.0,,,,False,,,,0.0-4.0-1.0,,1,,219,,1,[0],,"{""Q0"":""... play the game as if the cross hints <b>were not there</b> so that I look like someone who <b>had no hints</b>""}",5980.3200000023935,,multichoice_pretend,142666,91,6,survey-multi-choice,
5c881efa0ae44f001539a05b,614b4d0ec8217d5a6b17cfbb,614a9c7e0714a6ab06bc69d6,2480,1.0,,,False,"{'i': [2, 1, 1, 1, 2, 0, 1, 3, 3], 'j': [1, 2, 3, 1, 2, 1, 0, 1, 0], 't': [3400.434999988647, 5718.75, 8508.834999985993, 12159.184999996796, 15721.759999985807, 20013.154999993276, 25228.579999995418, 27926.934999995865, 28566.07499999518], 'hit': ['0', 'B', '0', '0', 'B', '0', '0', 'A', 'A']}",,,"[['unknown', 'sea', 'unknown', 'unknown'], ['sea', 'sea', 'ship', 'sea'], ['unknown', 'sea', 'ship', 'unknown'], ['ship', 'ship', 'unknown', 'unknown']]",,False,,"[['0', '0', '0', '0'], ['0', '0', 'B', '0'], ['0', '0', 'B', '0'], ['A', 'A', '0', '0']]",,0.0-5.0,,1,9.0,219,7.0,1,,,,,,,173340,91,7,Battleships,
5c881efa0ae44f001539a05b,614b4d0ec8217d5a6b17cfbb,614a9c7e0714a6ab06bc69d6,2480,,,,False,,,,,,False,,,,0.0-6.0,,1,,219,,1,,,,9797.579999998561,,,183139,91,8,instructions,"[{""page_index"":0,""viewing_time"":9796.719999998459}]"
5c881efa0ae44f001539a05b,614b4d0ec8217d5a6b17cfbb,614a9c7e0714a6ab06bc69d6,2480,1.0,,,False,"{'i': [2, 2, 1, 2, 0, 2, 4, 3, 4, 4, 4, 2, 0, 0], 'j': [2, 3, 2, 1, 4, 4, 2, 3, 4, 3, 0, 0, 0, 1], 't': [6319.864999997662, 9439.27000000258, 13563.724999999977, 14902.759999997215, 21012.635000006412, 26563.175000002957, 30029.62000000116, 34081.13000000594, 37243.20500000613, 51042.190000007395, 57201.505000004545, 61997.1349999978, 75327.36999999906, 76715.76500000083], 'hit': ['A', '0', '0', 'A', '0', '0', '0', '0', 'C', 'C', '0', 'A', 'B', 'B']}",,,"[['ship', 'ship', 'unknown', 'unknown', 'sea'], ['unknown', 'unknown', 'sea', 'unknown', 'unknown'], ['ship', 'ship', 'ship', 'sea', 'sea'], ['unknown', 'unknown', 'unknown', 'sea', 'unknown'], ['sea', 'unknown', 'sea', 'ship', 'ship']]",,False,,"[['B', 'B', '0', '0', '0'], ['0', '0', '0', '0', '0'], ['A', 'A', 'A', '0', '0'], ['0', '0', '0', '0', '0'], ['0', '0', '0', 'C', 'C']]",2.0,0.0-7.0-0.0,,1,14.0,219,11.0,1,,,,,,pretend,261962,91,9,Battleships,
5c881efa0ae44f001539a05b,614b4d0ec8217d5a6b17cfbb,614a9c7e0714a6ab06bc69d6,2480,,,,False,,,,,,False,,,,0.0-7.0-1.0,,1,,219,,1,,,,3929.9599999940256,,,265896,91,10,instructions,"[{""page_index"":0,""viewing_time"":3929.4749999971827}]"
5c881efa0ae44f001539a05b,614b4d0ec8217d5a6b17cfbb,614a9c7e0714a6ab06bc69d6,2480,1.0,,,False,"{'i': [2, 2, 0, 2, 4, 4, 4, 4, 3, 2, 2, 1, 0, 1, 1, 0], 'j': [2, 4, 2, 0, 2, 0, 1, 3, 2, 3, 1, 1, 4, 4, 3, 1], 't': [1504.4400000042515, 4725.585000007413, 5175.595000007888, 5644.625000000815, 6159.830000004149, 37363.31000000064, 39136.64000001154, 40956.90000000468, 42423.99500000465, 55374.47000000975, 57036.430000007385, 59808.79000001005, 74042.59000001184, 76164.62500000489, 78202.91500000167, 83428.25500000617], 'hit': ['0', '0', '0', '0', 'C', '0', '0', '0', 'C', '0', 'A', 'A', '0', 'B', 'B', 'A']}",,,"[['unknown', 'ship', 'sea', 'unknown', 'sea'], ['unknown', 'ship', 'unknown', 'ship', 'ship'], ['sea', 'ship', 'sea', 'sea', 'sea'], ['unknown', 'unknown', 'ship', 'unknown', 'unknown'], ['sea', 'sea', 'ship', 'sea', 'unknown']]",,False,,"[['0', 'A', '0', '0', '0'], ['0', 'A', '0', 'B', 'B'], ['0', 'A', '0', '0', '0'], ['0', '0', 'C', '0', '0'], ['0', '0', 'C', '0', '0']]",8.0,0.0-7.0-0.1,,1,16.0,219,9.0,1,,,,,,pretend,351435,91,11,Battleships,
5c881efa0ae44f001539a05b,614b4d0ec8217d5a6b17cfbb,614a9c7e0714a6ab06bc69d6,2480,,,,False,,,,,,False,,,,0.0-7.0-1.1,,1,,219,,1,,,,1747.9099999909522,,,353187,91,12,instructions,"[{""page_index"":0,""viewing_time"":1747.5299999932759}]"
5c881efa0ae44f001539a05b,614b4d0ec8217d5a6b17cfbb,614a9c7e0714a6ab06bc69d6,2480,1.0,,,False,"{'i': [2, 2, 0, 2, 4, 1, 3, 2, 1, 3, 3, 3, 2, 0, 4, 0, 0, 4], 'j': [2, 4, 2, 0, 2, 0, 0, 1, 3, 3, 2, 4, 3, 4, 1, 0, 1, 3], 't': [1449.51000000583, 5687.724999996135, 6151.100000002771, 6610.08500000753, 12090.534999995725, 17126.09999999404, 19814.570000002277, 20214.615000004414, 29426.64999999397, 31534.820000000764, 34407.05500000331, 36510.504999998375, 37594.46500000195, 44049.299999998766, 45837.61499999673, 50308.755000005476, 51213.1650000083, 53036.095000003115], 'hit': ['0', '0', '0', 'B', '0', '0', '0', 'B', '0', 'A', '0', '0', 'A', '0', '0', 'C', 'C', 'A']}",,,"[['ship', 'ship', 'sea', 'unknown', 'sea'], ['sea', 'unknown', 'unknown', 'sea', 'unknown'], ['ship', 'ship', 'sea', 'ship', 'sea'], ['sea', 'unknown', 'sea', 'ship', 'sea'], ['unknown', 'sea', 'sea', 'ship', 'unknown']]",,False,,"[['C', 'C', '0', '0', '0'], ['0', '0', '0', '0', '0'], ['B', 'B', '0', 'A', '0'], ['0', '0', '0', 'A', '0'], ['0', '0', '0', 'A', '0']]",1.0,0.0-7.0-0.2,,1,18.0,219,7.0,1,,,,,,pretend,408321,91,13,Battleships,
5c881efa0ae44f001539a05b,614b4d0ec8217d5a6b17cfbb,614a9c7e0714a6ab06bc69d6,2480,,,,False,,,,,,False,,,,0.0-7.0-1.2,,1,,219,,1,,,,1508.2750000001397,,,409834,91,14,instructions,"[{""page_index"":0,""viewing_time"":1507.7799999999115}]"
5c881efa0ae44f001539a05b,614b4d0ec8217d5a6b17cfbb,614a9c7e0714a6ab06bc69d6,2480,1.0,,,False,"{'i': [2, 2, 0, 2, 4, 1, 1, 3, 3, 3, 2, 4, 1, 1, 4, 0, 1], 'j': [2, 4, 2, 0, 2, 3, 1, 1, 3, 2, 3, 3, 2, 0, 0, 4, 4], 't': [1842.7300000039395, 2338.0049999977928, 2813.11000000278, 3252.135000002454, 3776.9700000062585, 5225.76499999559, 5875.769999998738, 13409.625000000233, 13673.234999994747, 17693.035000003874, 21577.09999999497, 29689.910000000964, 42998.54499999492, 44172.72499999672, 48329.274999996414, 48895.40500000294, 49113.1849999947], 'hit': ['0', '0', '0', '0', '0', '0', 'A', '0', 'C', '0', 'C', '0', 'A', 'A', '0', 'B', 'B']}",,,"[['unknown', 'unknown', 'sea', 'unknown', 'ship'], ['ship', 'ship', 'ship', 'sea', 'ship'], ['sea', 'unknown', 'sea', 'ship', 'sea'], ['unknown', 'sea', 'sea', 'ship', 'unknown'], ['sea', 'unknown', 'sea', 'sea', 'unknown']]",,False,,"[['0', '0', '0', '0', 'B'], ['A', 'A', 'A', '0', 'B'], ['0', '0', '0', 'C', '0'], ['0', '0', '0', 'C', '0'], ['0', '0', '0', '0', '0']]",4.0,0.0-7.0-0.3,,1,17.0,219,8.0,1,,,,,,pretend,461058,91,15,Battleships,
5c881efa0ae44f001539a05b,614b4d0ec8217d5a6b17cfbb,614a9c7e0714a6ab06bc69d6,2480,,,,False,,,,,,False,,,,0.0-7.0-1.3,,1,,219,,1,,,,862.1600000042235,,,461925,91,16,instructions,"[{""page_index"":0,""viewing_time"":861.7850000009639}]"
5c881efa0ae44f001539a05b,614b4d0ec8217d5a6b17cfbb,614a9c7e0714a6ab06bc69d6,2480,1.0,,,False,"{'i': [2, 2, 0, 2, 4, 1, 2, 1, 0, 1, 3, 2, 3, 3, 0, 4, 3, 4, 3], 'j': [2, 4, 2, 0, 2, 3, 3, 2, 3, 1, 1, 1, 2, 3, 0, 4, 4, 3, 0], 't': [3561.9000000006054, 4001.0049999982584, 4476.089999996475, 4939.769999997225, 5434.94500000088, 7398.499999995693, 10479.684999998426, 12063.655000005383, 15086.280000003171, 16929.495000003953, 17348.53000000294, 18867.70499999693, 19389.429999995627, 23039.394999999786, 26190.44500000018, 28797.835000004852, 30775.695000003907, 31236.130000004778, 34782.265000001644], 'hit': ['0', '0', '0', '0', '0', 'C', '0', '0', 'C', '0', 'A', '0', 'A', '0', '0', 'B', '0', 'B', 'A']}",,,"[['sea', 'unknown', 'sea', 'ship', 'unknown'], ['unknown', 'sea', 'sea', 'ship', 'unknown'], ['sea', 'sea', 'sea', 'sea', 'sea'], ['ship', 'ship', 'ship', 'sea', 'sea'], ['unknown', 'unknown', 'sea', 'ship', 'ship']]",,False,,"[['0', '0', '0', 'C', '0'], ['0', '0', '0', 'C', '0'], ['0', '0', '0', '0', '0'], ['A', 'A', 'A', '0', '0'], ['0', '0', '0', 'B', 'B']]",7.0,0.0-7.0-0.4,,1,19.0,219,6.0,1,,,,,,pretend,498811,91,17,Battleships,
5c881efa0ae44f001539a05b,614b4d0ec8217d5a6b17cfbb,614a9c7e0714a6ab06bc69d6,2480,,,,False,,,,,,False,,,,0.0-7.0-1.4,,1,,219,,1,,,,794.6049999882234,,,499610,91,18,instructions,"[{""page_index"":0,""viewing_time"":794.2699999985052}]"
5c881efa0ae44f001539a05b,614b4d0ec8217d5a6b17cfbb,614a9c7e0714a6ab06bc69d6,2480,,,,False,,,,,,False,,,,0.0-8.0,,1,,219,,1,,,,11987.589999989723,,,511598,91,19,instructions,"[{""page_index"":0,""viewing_time"":11987.284999995609}]"
5c881efa0ae44f001539a05b,614b4d0ec8217d5a6b17cfbb,614a9c7e0714a6ab06bc69d6,2480,0.0,,,False,"{'i': [2, 2, 0, 2, 4, 3, 2, 2, 1, 3, 4, 4, 1, 0, 0, 1], 'j': [2, 4, 2, 0, 2, 0, 1, 3, 4, 4, 4, 0, 2, 3, 4, 3], 't': [2677.3450000036974, 3017.810000004829, 3521.4800000103423, 4290.399999998044, 4759.279999998398, 8162.065000011353, 8880.830000009155, 11782.359999997425, 12192.33499999973, 12587.11000000767, 16232.990000004065, 19405.155000000377, 22821.280000003753, 24854.510000004666, 25428.850000011153, 25933.799999998882], 'hit': ['0', 'A', '0', 'C', '0', '0', 'C', '0', '0', 'A', 'A', '0', '0', 'B', '0', 'B']}",,,"[['unknown', 'unknown', 'sea', 'ship', 'sea'], ['unknown', 'unknown', 'sea', 'ship', 'sea'], ['ship', 'ship', 'sea', 'sea', 'ship'], ['sea', 'unknown', 'unknown', 'unknown', 'ship'], ['sea', 'unknown', 'sea', 'unknown', 'ship']]",,False,,"[['0', '0', '0', 'B', '0'], ['0', '0', '0', 'B', '0'], ['C', 'C', '0', '0', 'A'], ['0', '0', '0', '0', 'A'], ['0', '0', '0', '0', 'A']]",6.0,0.0-9.0-0.0,,1,16.0,219,9.0,1,,,,,,non-pretend,539631,91,20,Battleships,
5c881efa0ae44f001539a05b,614b4d0ec8217d5a6b17cfbb,614a9c7e0714a6ab06bc69d6,2480,,,,False,,,,,,False,,,,0.0-9.0-1.0,,1,,219,,1,,,,2665.469999992638,,,542299,91,21,instructions,"[{""page_index"":0,""viewing_time"":2665.1100000017323}]"
5c881efa0ae44f001539a05b,614b4d0ec8217d5a6b17cfbb,614a9c7e0714a6ab06bc69d6,2480,0.0,,,False,"{'i': [2, 2, 0, 2, 4, 3, 1, 1, 3, 0, 0, 4, 4, 3, 3, 0], 'j': [2, 4, 2, 0, 2, 3, 3, 1, 1, 0, 4, 4, 3, 0, 2, 3], 't': [1460.865000000922, 1872.5349999876926, 2194.9949999980163, 2624.819999997271, 2999.0649999963352, 3658.929999990505, 3968.2299999985844, 4941.944999998668, 5232.229999994161, 10726.914999992005, 11292.044999994687, 11766.13499999803, 13799.294999989797, 17290.894999998272, 18414.789999995264, 19490.344999998342], 'hit': ['0', '0', '0', '0', '0', '0', 'C', '0', 'A', '0', '0', 'B', 'B', 'A', 'A', 'C']}",,,"[['sea', 'unknown', 'sea', 'ship', 'sea'], ['unknown', 'sea', 'unknown', 'ship', 'unknown'], ['sea', 'unknown', 'sea', 'unknown', 'sea'], ['ship', 'ship', 'ship', 'sea', 'unknown'], ['unknown', 'unknown', 'sea', 'ship', 'ship']]",,False,,"[['0', '0', '0', 'C', '0'], ['0', '0', '0', 'C', '0'], ['0', '0', '0', '0', '0'], ['A', 'A', 'A', '0', '0'], ['0', '0', '0', 'B', 'B']]",7.0,0.0-9.0-0.1,,1,16.0,219,9.0,1,,,,,,non-pretend,563896,91,22,Battleships,
5c881efa0ae44f001539a05b,614b4d0ec8217d5a6b17cfbb,614a9c7e0714a6ab06bc69d6,2480,,,,False,,,,,,False,,,,0.0-9.0-1.1,,1,,219,,1,,,,803.82999998983,,,564701,91,23,instructions,"[{""page_index"":0,""viewing_time"":803.5699999891222}]"
5c881efa0ae44f001539a05b,614b4d0ec8217d5a6b17cfbb,614a9c7e0714a6ab06bc69d6,2480,0.0,,,False,"{'i': [2, 2, 0, 2, 4, 3, 3, 4, 4, 1, 1, 3, 4], 'j': [2, 4, 2, 0, 2, 4, 0, 3, 1, 0, 4, 2, 4], 't': [18916.005000006407, 19175.77000000165, 19625.840000007884, 20005.235000004177, 20425.165000007837, 22268.490000002203, 22924.0950000094, 24660.445000001346, 25114.74000000453, 25719.85000000859, 26842.705000002752, 27886.97000000684, 29025.980000005802], 'hit': ['0', 'A', '0', 'C', 'B', 'A', 'C', '0', '0', '0', '0', 'B', 'A']}",,,"[['unknown', 'unknown', 'sea', 'unknown', 'unknown'], ['sea', 'unknown', 'unknown', 'unknown', 'sea'], ['ship', 'unknown', 'sea', 'unknown', 'ship'], ['ship', 'unknown', 'ship', 'unknown', 'ship'], ['unknown', 'sea', 'ship', 'sea', 'ship']]",,False,,"[['0', '0', '0', '0', '0'], ['0', '0', '0', '0', '0'], ['C', '0', '0', '0', 'A'], ['C', '0', 'B', '0', 'A'], ['0', '0', 'B', '0', 'A']]",5.0,0.0-9.0-0.2,,1,13.0,219,12.0,1,,,,,,non-pretend,595834,91,24,Battleships,
5c881efa0ae44f001539a05b,614b4d0ec8217d5a6b17cfbb,614a9c7e0714a6ab06bc69d6,2480,,,,False,,,,,,False,,,,0.0-9.0-1.2,,1,,219,,1,,,,1208.5100000113016,,,597045,91,25,instructions,"[{""page_index"":0,""viewing_time"":1208.1100000068545}]"
5c881efa0ae44f001539a05b,614b4d0ec8217d5a6b17cfbb,614a9c7e0714a6ab06bc69d6,2480,0.0,,,False,"{'i': [2, 2, 0, 2, 4, 3, 4, 4, 2, 2, 0, 0, 0, 1], 'j': [2, 4, 2, 0, 2, 2, 1, 3, 1, 3, 0, 4, 3, 4], 't': [1049.8999999981606, 1284.9399999977322, 1595.035000005737, 1933.6500000063097, 2219.08500000427, 3008.285000003525, 4036.884999994072, 5096.109999998589, 5616.535000008298, 6425.445000000764, 9112.829999998212, 9636.945000005653, 10126.980000000913, 10590.895000001183], 'hit': ['A', '0', '0', '0', 'C', '0', '0', 'C', 'A', 'A', '0', 'B', '0', 'B']}",,,"[['sea', 'unknown', 'sea', 'sea', 'ship'], ['unknown', 'unknown', 'unknown', 'unknown', 'ship'], ['sea', 'ship', 'ship', 'ship', 'sea'], ['unknown', 'unknown', 'sea', 'unknown', 'unknown'], ['unknown', 'sea', 'ship', 'ship', 'unknown']]",,False,,"[['0', '0', '0', '0', 'B'], ['0', '0', '0', '0', 'B'], ['0', 'A', 'A', 'A', '0'], ['0', '0', '0', '0', '0'], ['0', '0', 'C', 'C', '0']]",3.0,0.0-9.0-0.3,,1,14.0,219,11.0,1,,,,,,non-pretend,609732,91,26,Battleships,
5c881efa0ae44f001539a05b,614b4d0ec8217d5a6b17cfbb,614a9c7e0714a6ab06bc69d6,2480,,,,False,,,,,,False,,,,0.0-9.0-1.3,,1,,219,,1,,,,1862.7600000036182,,,611595,91,27,instructions,"[{""page_index"":0,""viewing_time"":1862.4200000049314}]"
5c881efa0ae44f001539a05b,614b4d0ec8217d5a6b17cfbb,614a9c7e0714a6ab06bc69d6,2480,0.0,,,False,"{'i': [2, 2, 0, 2, 4, 2, 3, 1, 2, 3, 1, 0, 0, 4, 4], 'j': [2, 4, 2, 0, 2, 3, 2, 2, 1, 4, 4, 0, 1, 0, 1], 't': [1604.1449999902397, 1839.1199999896344, 2214.1799999953946, 2533.1399999995483, 2888.219999993453, 3173.2150000025285, 6129.369999995106, 6649.64499999769, 7378.57499999518, 7957.804999998189, 8452.969999998459, 9652.079999999842, 10076.014999998733, 10536.12499999872, 11361.940000002505], 'hit': ['B', 'A', '0', '0', '0', '0', '0', '0', 'B', 'A', 'A', '0', '0', 'C', 'C']}",,,"[['sea', 'sea', 'sea', 'unknown', 'unknown'], ['unknown', 'unknown', 'sea', 'unknown', 'ship'], ['sea', 'ship', 'ship', 'sea', 'ship'], ['unknown', 'unknown', 'sea', 'unknown', 'ship'], ['ship', 'ship', 'sea', 'unknown', 'unknown']]",,False,,"[['0', '0', '0', '0', '0'], ['0', '0', '0', '0', 'A'], ['0', 'B', 'B', '0', 'A'], ['0', '0', '0', '0', 'A'], ['C', 'C', '0', '0', '0']]",0.0,0.0-9.0-0.4,,1,15.0,219,10.0,1,,,,,,non-pretend,625067,91,28,Battleships,
5c881efa0ae44f001539a05b,614b4d0ec8217d5a6b17cfbb,614a9c7e0714a6ab06bc69d6,2480,,,,False,,,,,,False,,,,0.0-9.0-1.4,,1,,219,,1,,,,1498.5350000060862,,,626566,91,29,instructions,"[{""page_index"":0,""viewing_time"":1498.2100000052014}]"
5c881efa0ae44f001539a05b,614b4d0ec8217d5a6b17cfbb,614a9c7e0714a6ab06bc69d6,2480,,,,False,,,,,,False,,,,0.0-10.0,,1,,219,,1,,,,16243.860000002314,,,642811,91,30,instructions,"[{""page_index"":0,""viewing_time"":6657.940000004601},{""page_index"":1,""viewing_time"":9585.619999998016}]"
5c881efa0ae44f001539a05b,614b4d0ec8217d5a6b17cfbb,614a9c7e0714a6ab06bc69d6,2480,,202.0,left,False,,1.0,left,,,False,205.0,"[['0', '0', '0', '0', 'B'], ['A', 'A', 'A', '0', 'B'], ['0', '0', '0', 'C', '0'], ['0', '0', '0', 'C', '0'], ['0', '0', '0', '0', '0']]",4.0,0.0-11.0-0.0,right,1,,219,,1,,"['left', 'right']",,,,judge,693280,91,31,Battleships_replay_2players,
5c881efa0ae44f001539a05b,614b4d0ec8217d5a6b17cfbb,614a9c7e0714a6ab06bc69d6,2480,,,,False,,,,,,False,,,,0.0-11.0-1.0,,1,,219,,1,,,,5160.769999987679,,,698445,91,32,instructions,"[{""page_index"":0,""viewing_time"":5160.5299999937415}]"
5c881efa0ae44f001539a05b,614b4d0ec8217d5a6b17cfbb,614a9c7e0714a6ab06bc69d6,2480,,204.0,right,False,,1.0,right,,,False,90.0,"[['B', 'B', '0', '0', '0'], ['0', '0', '0', '0', '0'], ['A', 'A', 'A', '0', '0'], ['0', '0', '0', '0', '0'], ['0', '0', '0', 'C', 'C']]",2.0,0.0-11.0-0.1,left,1,,219,,1,,"['left', 'right']",,,,judge,742001,91,33,Battleships_replay_2players,
5c881efa0ae44f001539a05b,614b4d0ec8217d5a6b17cfbb,614a9c7e0714a6ab06bc69d6,2480,,,,False,,,,,,False,,,,0.0-11.0-1.1,,1,,219,,1,,,,2076.1599999968894,,,744078,91,34,instructions,"[{""page_index"":0,""viewing_time"":2075.8999999961816}]"
5c881efa0ae44f001539a05b,614b4d0ec8217d5a6b17cfbb,614a9c7e0714a6ab06bc69d6,2480,,205.0,right,False,,1.0,right,,,False,216.0,"[['0', '0', '0', '0', 'B'], ['0', '0', '0', '0', 'B'], ['0', 'A', 'A', 'A', '0'], ['0', '0', '0', '0', '0'], ['0', '0', 'C', 'C', '0']]",3.0,0.0-11.0-0.2,left,1,,219,,1,,"['left', 'right']",,,,judge,799499,91,35,Battleships_replay_2players,
5c881efa0ae44f001539a05b,614b4d0ec8217d5a6b17cfbb,614a9c7e0714a6ab06bc69d6,2480,,,,False,,,,,,False,,,,0.0-11.0-1.2,,1,,219,,1,,,,2159.619999991264,,,801659,91,36,instructions,"[{""page_index"":0,""viewing_time"":2159.3699999939417}]"
5c881efa0ae44f001539a05b,614b4d0ec8217d5a6b17cfbb,614a9c7e0714a6ab06bc69d6,2480,,93.0,right,False,,1.0,right,,,False,88.0,"[['0', '0', '0', '0', '0'], ['0', '0', '0', '0', 'A'], ['0', 'B', 'B', '0', 'A'], ['0', '0', '0', '0', 'A'], ['C', 'C', '0', '0', '0']]",0.0,0.0-11.0-0.3,left,1,,219,,1,,"['left', 'right']",,,,judge,856603,91,37,Battleships_replay_2players,
5c881efa0ae44f001539a05b,614b4d0ec8217d5a6b17cfbb,614a9c7e0714a6ab06bc69d6,2480,,,,False,,,,,,False,,,,0.0-11.0-1.3,,1,,219,,1,,,,1043.1700000044657,,,857647,91,38,instructions,"[{""page_index"":0,""viewing_time"":1042.9299999959767}]"
5c881efa0ae44f001539a05b,614b4d0ec8217d5a6b17cfbb,614a9c7e0714a6ab06bc69d6,2480,,205.0,right,False,,0.0,left,,,False,213.0,"[['C', 'C', '0', '0', '0'], ['0', '0', '0', '0', '0'], ['B', 'B', '0', 'A', '0'], ['0', '0', '0', 'A', '0'], ['0', '0', '0', 'A', '0']]",1.0,0.0-11.0-0.4,left,1,,219,,1,,"['left', 'right']",,,,judge,908740,91,39,Battleships_replay_2players,
5c881efa0ae44f001539a05b,614b4d0ec8217d5a6b17cfbb,614a9c7e0714a6ab06bc69d6,2480,,,,False,,,,,,False,,,,0.0-11.0-1.4,,1,,219,,1,,,,3053.780000002007,,,911795,91,40,instructions,"[{""page_index"":0,""viewing_time"":3053.504999988945}]"
5c881efa0ae44f001539a05b,614b4d0ec8217d5a6b17cfbb,614a9c7e0714a6ab06bc69d6,2480,,,,False,,,,,,False,,,,0.0-12.0,,1,,219,,1,,,"{""worker_comments"":""""}",4763.10999999987,,,916561,91,41,survey-text,
5c881efa0ae44f001539a05b,614b4d0ec8217d5a6b17cfbb,614a9c7e0714a6ab06bc69d6,2480,,,,False,,,,,,False,,,,0.0-13.0,,1,,219,,1,,,,8874.504999999772,,,925438,91,42,instructions,"[{""page_index"":0,""viewing_time"":8874.119999993127}]"
6141d2b11c90e99eafe3dc1c,614b4d962f4af313073d130d,614a9c7e0714a6ab06bc69d6,2480,,,,False,,,,,,True,,,,0.0-0.0,,1,,216,,1,,,,,1.0,,4801,77,0,fullscreen,
6141d2b11c90e99eafe3dc1c,614b4d962f4af313073d130d,614a9c7e0714a6ab06bc69d6,2480,,,,False,,,,,,True,,,,0.0-1.0-0.0,,1,,216,,1,,,,21642.80000001192,,,26448,77,1,instructions,"[{""page_index"":0,""viewing_time"":4756.900000035763},{""page_index"":1,""viewing_time"":4968.099999964237},{""page_index"":2,""viewing_time"":4780.699999988079},{""page_index"":3,""viewing_time"":7135.900000035763}]"
6141d2b11c90e99eafe3dc1c,614b4d962f4af313073d130d,614a9c7e0714a6ab06bc69d6,2480,,,,False,,1.0,,,,True,,,,0.0-1.0-1.0,,1,,216,,1,[0],,"{""Q0"":""... sink all ships with as <b>few clicks</b> as possible""}",6102.899999976158,,multichoice_nonpretend,32554,77,2,survey-multi-choice,
6141d2b11c90e99eafe3dc1c,614b4d962f4af313073d130d,614a9c7e0714a6ab06bc69d6,2480,,,,False,,,,,,True,,,,0.0-2.0,,1,,216,,1,,,,4340.199999988079,,,36895,77,3,instructions,"[{""page_index"":0,""viewing_time"":4340}]"
6141d2b11c90e99eafe3dc1c,614b4d962f4af313073d130d,614a9c7e0714a6ab06bc69d6,2480,0.0,,,False,"{'i': [1, 2, 2, 0, 1, 1, 3, 1], 'j': [2, 2, 0, 2, 1, 3, 0, 0], 't': [2650.2000000476837, 7619.900000035763, 10766.600000023842, 12218.600000023842, 13423.300000011921, 14724.600000023842, 16055.600000023842, 17262.200000047684], 'hit': ['B', '0', 'A', '0', '0', 'B', '0', 'A']}",,,"[['unknown', 'unknown', 'sea', 'unknown'], ['ship', 'sea', 'ship', 'ship'], ['ship', 'unknown', 'sea', 'unknown'], ['sea', 'unknown', 'unknown', 'unknown']]",,True,,"[['0', '0', '0', '0'], ['A', '0', 'B', 'B'], ['A', '0', '0', '0'], ['0', '0', '0', '0']]",,0.0-3.0,,1,8.0,216,8.0,1,,,,,,,56260,77,4,Battleships,
6141d2b11c90e99eafe3dc1c,614b4d962f4af313073d130d,614a9c7e0714a6ab06bc69d6,2480,,,,False,,,,,,True,,,,0.0-4.0,,1,,216,,1,,,,16348.300000011921,,,72611,77,5,instructions,"[{""page_index"":0,""viewing_time"":16348}]"
6141d2b11c90e99eafe3dc1c,614b4d962f4af313073d130d,614a9c7e0714a6ab06bc69d6,2480,0.0,,,False,"{'i': [2, 3, 4, 0, 0, 2, 3, 2], 'j': [3, 3, 3, 0, 1, 1, 1, 0], 't': [2871.5, 6739.299999952316, 9755.199999988079, 14037.899999976158, 15106.799999952316, 17417.099999964237, 18338.599999964237, 20429.899999976158], 'hit': ['A', 'A', 'A', 'C', 'C', 'B', '0', 'B']}",,,"[['ship', 'ship', 'unknown', 'unknown', 'unknown'], ['unknown', 'unknown', 'unknown', 'unknown', 'unknown'], ['ship', 'ship', 'unknown', 'ship', 'unknown'], ['unknown', 'sea', 'unknown', 'ship', 'unknown'], ['unknown', 'unknown', 'unknown', 'ship', 'unknown']]",,True,,"[['C', 'C', '0', '0', '0'], ['0', '0', '0', '0', '0'], ['B', 'B', '0', 'A', '0'], ['0', '0', '0', 'A', '0'], ['0', '0', '0', 'A', '0']]",1.0,0.0-5.0-0.0,,1,8.0,216,17.0,1,,,,,,non-pretend,95183,77,6,Battleships,
6141d2b11c90e99eafe3dc1c,614b4d962f4af313073d130d,614a9c7e0714a6ab06bc69d6,2480,,,,False,,,,,,True,,,,0.0-5.0-1.0,,1,,216,,1,,,,2973.0,,,98161,77,7,instructions,"[{""page_index"":0,""viewing_time"":2972.599999964237}]"
6141d2b11c90e99eafe3dc1c,614b4d962f4af313073d130d,614a9c7e0714a6ab06bc69d6,2480,0.0,,,False,"{'i': [1, 3, 1, 2, 1, 0, 3, 2, 3, 2, 2, 0, 4, 4, 3, 4], 'j': [1, 3, 4, 4, 3, 4, 0, 1, 1, 2, 3, 1, 2, 1, 2, 3], 't': [2109.300000011921, 3868.399999976158, 5148.599999964237, 6301.899999976158, 9634.899999976158, 10887.099999964237, 13357.899999976158, 14576.699999988079, 15782.399999976158, 17045.899999976158, 18206.899999976158, 20287.399999976158, 22777.899999976158, 24013.599999964237, 25046.30000001192, 26137.399999976158], 'hit': ['0', '0', 'B', '0', '0', 'B', '0', 'A', '0', 'A', 'A', '0', 'C', '0', '0', 'C']}",,,"[['unknown', 'sea', 'unknown', 'unknown', 'ship'], ['unknown', 'sea', 'unknown', 'sea', 'ship'], ['unknown', 'ship', 'ship', 'ship', 'sea'], ['sea', 'sea', 'sea', 'sea', 'unknown'], ['unknown', 'sea', 'ship', 'ship', 'unknown']]",,True,,"[['0', '0', '0', '0', 'B'], ['0', '0', '0', '0', 'B'], ['0', 'A', 'A', 'A', '0'], ['0', '0', '0', '0', '0'], ['0', '0', 'C', 'C', '0']]",3.0,0.0-5.0-0.1,,1,16.0,216,9.0,1,,,,,,non-pretend,126434,77,8,Battleships,
6141d2b11c90e99eafe3dc1c,614b4d962f4af313073d130d,614a9c7e0714a6ab06bc69d6,2480,,,,False,,,,,,True,,,,0.0-5.0-1.1,,1,,216,,1,,,,1914.9000000357628,,,128353,77,9,instructions,"[{""page_index"":0,""viewing_time"":1914.5}]"
6141d2b11c90e99eafe3dc1c,614b4d962f4af313073d130d,614a9c7e0714a6ab06bc69d6,2480,0.0,,,False,"{'i': [3, 2, 2, 1, 3, 2, 2, 0, 0, 0, 1, 4], 'j': [4, 4, 1, 1, 1, 2, 0, 3, 2, 4, 3, 4], 't': [1834.5, 4343.899999976158, 9110.100000023842, 10888.199999988079, 12204, 13378.899999976158, 14596, 16500.5, 17527.80000001192, 18666.19999998808, 20065.80000001192, 22148.399999976158], 'hit': ['A', 'A', 'C', '0', '0', '0', 'C', 'B', '0', '0', 'B', 'A']}",,,"[['unknown', 'unknown', 'sea', 'ship', 'sea'], ['unknown', 'sea', 'unknown', 'ship', 'unknown'], ['ship', 'ship', 'sea', 'unknown', 'ship'], ['unknown', 'sea', 'unknown', 'unknown', 'ship'], ['unknown', 'unknown', 'unknown', 'unknown', 'ship']]",,True,,"[['0', '0', '0', 'B', '0'], ['0', '0', '0', 'B', '0'], ['C', 'C', '0', '0', 'A'], ['0', '0', '0', '0', 'A'], ['0', '0', '0', '0', 'A']]",6.0,0.0-5.0-0.2,,1,12.0,216,13.0,1,,,,,,non-pretend,152636,77,10,Battleships,
6141d2b11c90e99eafe3dc1c,614b4d962f4af313073d130d,614a9c7e0714a6ab06bc69d6,2480,,,,False,,,,,,True,,,,0.0-5.0-1.2,,1,,216,,1,,,,1605.699999988079,,,154244,77,11,instructions,"[{""page_index"":0,""viewing_time"":1605.3999999761581}]"
6141d2b11c90e99eafe3dc1c,614b4d962f4af313073d130d,614a9c7e0714a6ab06bc69d6,2480,0.0,,,False,"{'i': [2, 1, 0, 1, 2, 3, 4, 0, 1, 1, 0, 4, 2, 1, 3, 3, 2], 'j': [0, 0, 0, 1, 4, 2, 3, 3, 3, 4, 4, 1, 2, 2, 4, 3, 3], 't': [1693.699999988079, 2941.300000011921, 4263.600000023842, 5336, 7012.5, 8381.199999988079, 9516.800000011921, 11480, 13007.399999976158, 14652.600000023842, 15728.199999988079, 17638.30000001192, 19368.100000023842, 22790.69999998808, 25095.19999998808, 27202.600000023842, 28217.5], 'hit': ['0', 'A', '0', 'A', '0', '0', '0', '0', '0', 'B', 'B', '0', '0', 'A', '0', 'C', 'C']}",,,"[['sea', 'unknown', 'unknown', 'sea', 'ship'], ['ship', 'ship', 'ship', 'sea', 'ship'], ['sea', 'unknown', 'sea', 'ship', 'sea'], ['unknown', 'unknown', 'sea', 'ship', 'sea'], ['unknown', 'sea', 'unknown', 'sea', 'unknown']]",,True,,"[['0', '0', '0', '0', 'B'], ['A', 'A', 'A', '0', 'B'], ['0', '0', '0', 'C', '0'], ['0', '0', '0', 'C', '0'], ['0', '0', '0', '0', '0']]",4.0,0.0-5.0-0.3,,1,17.0,216,8.0,1,,,,,,non-pretend,184606,77,12,Battleships,
6141d2b11c90e99eafe3dc1c,614b4d962f4af313073d130d,614a9c7e0714a6ab06bc69d6,2480,,,,False,,,,,,True,,,,0.0-5.0-1.3,,1,,216,,1,,,,1648.7000000476837,,,186258,77,13,instructions,"[{""page_index"":0,""viewing_time"":1648.4000000357628}]"
6141d2b11c90e99eafe3dc1c,614b4d962f4af313073d130d,614a9c7e0714a6ab06bc69d6,2480,0.0,,,False,"{'i': [2, 1, 2, 4, 1, 0, 3, 3, 2, 3, 2, 0, 3, 4, 4], 'j': [0, 4, 4, 2, 2, 1, 1, 3, 2, 2, 1, 4, 4, 1, 0], 't': [2144.400000035763, 3835.100000023842, 5007.300000011921, 6593.100000023842, 8186.900000035763, 9290.200000047684, 11400.600000023842, 20731.900000035763, 22429.200000047684, 24951.30000001192, 26194.80000001192, 28784.80000001192, 30197, 31605.700000047684, 32649.600000023842], 'hit': ['0', 'A', 'A', '0', '0', '0', '0', '0', 'B', '0', 'B', '0', 'A', 'C', 'C']}",,,"[['unknown', 'sea', 'unknown', 'unknown', 'sea'], ['unknown', 'unknown', 'sea', 'unknown', 'ship'], ['sea', 'ship', 'ship', 'unknown', 'ship'], ['unknown', 'sea', 'sea', 'sea', 'ship'], ['ship', 'ship', 'sea', 'unknown', 'unknown']]",,True,,"[['0', '0', '0', '0', '0'], ['0', '0', '0', '0', 'A'], ['0', 'B', 'B', '0', 'A'], ['0', '0', '0', '0', 'A'], ['C', 'C', '0', '0', '0']]",0.0,0.0-5.0-0.4,,1,15.0,216,10.0,1,,,,,,non-pretend,221058,77,14,Battleships,
6141d2b11c90e99eafe3dc1c,614b4d962f4af313073d130d,614a9c7e0714a6ab06bc69d6,2480,,,,False,,,,,,True,,,,0.0-5.0-1.4,,1,,216,,1,,,,2355.300000011921,,,223417,77,15,instructions,"[{""page_index"":0,""viewing_time"":2355}]"
6141d2b11c90e99eafe3dc1c,614b4d962f4af313073d130d,614a9c7e0714a6ab06bc69d6,2480,,,,False,,,,,,True,,,,0.0-6.0-0.0,,1,,216,,1,,,,27579.0,,,250996,77,16,instructions,"[{""page_index"":0,""viewing_time"":3257.5},{""page_index"":1,""viewing_time"":6309},{""page_index"":2,""viewing_time"":8260.300000011921},{""page_index"":3,""viewing_time"":9752}]"
6141d2b11c90e99eafe3dc1c,614b4d962f4af313073d130d,614a9c7e0714a6ab06bc69d6,2480,,,,False,,1.0,,,,True,,,,0.0-6.0-1.0,,1,,216,,1,[0],,"{""Q0"":""... play the game as if the cross hints <b>were not there</b> so that I look like someone who <b>had no hints</b>""}",6036.699999988079,,multichoice_pretend,257035,77,17,survey-multi-choice,
6141d2b11c90e99eafe3dc1c,614b4d962f4af313073d130d,614a9c7e0714a6ab06bc69d6,2480,1.0,,,False,"{'i': [1, 2, 3, 0, 0, 1, 1, 2, 2, 3, 3, 2], 'j': [1, 3, 2, 1, 2, 2, 3, 0, 1, 1, 0, 2], 't': [5297.199999988079, 8395.5, 14591.100000023842, 16825.19999998808, 18482.30000001192, 20499.100000023842, 22222.19999998808, 26121.69999998808, 28087.80000001192, 29383.600000023842, 30904, 33109.60000002384], 'hit': ['0', '0', '0', '0', '0', 'B', '0', '0', '0', 'A', 'A', 'B']}",,,"[['unknown', 'sea', 'sea', 'unknown'], ['unknown', 'sea', 'ship', 'sea'], ['sea', 'sea', 'ship', 'sea'], ['ship', 'ship', 'sea', 'unknown']]",,True,,"[['0', '0', '0', '0'], ['0', '0', 'B', '0'], ['0', '0', 'B', '0'], ['A', 'A', '0', '0']]",,0.0-7.0,,1,12.0,216,4.0,1,,,,,,,292283,77,18,Battleships,
6141d2b11c90e99eafe3dc1c,614b4d962f4af313073d130d,614a9c7e0714a6ab06bc69d6,2480,,,,False,,,,,,True,,,,0.0-8.0,,1,,216,,1,,,,6597.799999952316,,,298882,77,19,instructions,"[{""page_index"":0,""viewing_time"":6596.699999988079}]"
6141d2b11c90e99eafe3dc1c,614b4d962f4af313073d130d,614a9c7e0714a6ab06bc69d6,2480,1.0,,,False,"{'i': [2, 0, 3, 3, 4, 1, 2, 2, 3, 2, 1, 3, 4], 'j': [3, 2, 2, 1, 2, 0, 0, 1, 0, 4, 4, 4, 4], 't': [10726.199999988079, 13825.5, 16847.599999964237, 19890.69999998808, 21525.099999964237, 24077.899999976158, 25278, 27379.69999998808, 28613.5, 33867, 35272.799999952316, 36252, 37213.299999952316], 'hit': ['0', '0', 'B', '0', 'B', '0', 'C', '0', 'C', 'A', '0', 'A', 'A']}",,,"[['unknown', 'unknown', 'sea', 'unknown', 'unknown'], ['sea', 'unknown', 'unknown', 'unknown', 'sea'], ['ship', 'sea', 'unknown', 'sea', 'ship'], ['ship', 'sea', 'ship', 'unknown', 'ship'], ['unknown', 'unknown', 'ship', 'unknown', 'ship']]",,True,,"[['0', '0', '0', '0', '0'], ['0', '0', '0', '0', '0'], ['C', '0', '0', '0', 'A'], ['C', '0', 'B', '0', 'A'], ['0', '0', 'B', '0', 'A']]",5.0,0.0-9.0-0.0,,1,13.0,216,12.0,1,,,,,,pretend,338266,77,20,Battleships,
6141d2b11c90e99eafe3dc1c,614b4d962f4af313073d130d,614a9c7e0714a6ab06bc69d6,2480,,,,False,,,,,,True,,,,0.0-9.0-1.0,,1,,216,,1,,,,2167.300000011921,,,340437,77,21,instructions,"[{""page_index"":0,""viewing_time"":2166.699999988079}]"
6141d2b11c90e99eafe3dc1c,614b4d962f4af313073d130d,614a9c7e0714a6ab06bc69d6,2480,1.0,,,False,"{'i': [2, 1, 1, 1, 3, 3, 2, 2, 1, 4, 4, 3, 2, 0], 'j': [4, 3, 2, 4, 3, 1, 1, 0, 1, 2, 3, 2, 2, 1], 't': [2597.800000011921, 4227.699999988079, 5479, 6953.5, 9570.599999964237, 12922, 14028.099999964237, 15735.699999988079, 17749.19999998808, 23668, 25877.30000001192, 27301.80000001192, 30384, 31573.099999964237], 'hit': ['0', 'B', '0', 'B', '0', '0', 'A', '0', 'A', 'C', '0', 'C', '0', 'A']}",,,"[['unknown', 'ship', 'unknown', 'unknown', 'unknown'], ['unknown', 'ship', 'sea', 'ship', 'ship'], ['sea', 'ship', 'sea', 'unknown', 'sea'], ['unknown', 'sea', 'ship', 'sea', 'unknown'], ['unknown', 'unknown', 'ship', 'sea', 'unknown']]",,True,,"[['0', 'A', '0', '0', '0'], ['0', 'A', '0', 'B', 'B'], ['0', 'A', '0', '0', '0'], ['0', '0', 'C', '0', '0'], ['0', '0', 'C', '0', '0']]",8.0,0.0-9.0-0.1,,1,14.0,216,11.0,1,,,,,,pretend,374151,77,22,Battleships,
6141d2b11c90e99eafe3dc1c,614b4d962f4af313073d130d,614a9c7e0714a6ab06bc69d6,2480,,,,False,,,,,,True,,,,0.0-9.0-1.1,,1,,216,,1,,,,5884.899999976158,,,380039,77,23,instructions,"[{""page_index"":0,""viewing_time"":5883.899999976158}]"
6141d2b11c90e99eafe3dc1c,614b4d962f4af313073d130d,614a9c7e0714a6ab06bc69d6,2480,1.0,,,False,"{'i': [3, 2, 0, 0, 0, 1, 3, 2, 2, 3, 4, 4, 3, 2], 'j': [3, 2, 2, 3, 4, 3, 0, 0, 1, 2, 2, 4, 4, 4], 't': [2354.5, 6224.300000011921, 10193.900000035763, 11964.800000011921, 13378.900000035763, 14754.100000023842, 17366, 18873.100000023842, 21356.80000001192, 23240.30000001192, 25182.600000023842, 27496.19999998808, 30117.19999998808, 32587.19999998808], 'hit': ['0', '0', '0', 'B', '0', 'B', '0', 'C', 'C', '0', '0', 'A', 'A', 'A']}",,,"[['unknown', 'unknown', 'sea', 'ship', 'sea'], ['unknown', 'unknown', 'unknown', 'ship', 'unknown'], ['ship', 'ship', 'sea', 'unknown', 'ship'], ['sea', 'unknown', 'sea', 'sea', 'ship'], ['unknown', 'unknown', 'sea', 'unknown', 'ship']]",,True,,"[['0', '0', '0', 'B', '0'], ['0', '0', '0', 'B', '0'], ['C', 'C', '0', '0', 'A'], ['0', '0', '0', '0', 'A'], ['0', '0', '0', '0', 'A']]",6.0,0.0-9.0-0.2,,1,14.0,216,11.0,1,,,,,,pretend,414767,77,24,Battleships,
6141d2b11c90e99eafe3dc1c,614b4d962f4af313073d130d,614a9c7e0714a6ab06bc69d6,2480,,,,False,,,,,,True,,,,0.0-9.0-1.2,,1,,216,,1,,,,2115.5,,,416886,77,25,instructions,"[{""page_index"":0,""viewing_time"":2115.199999988079}]"
6141d2b11c90e99eafe3dc1c,614b4d962f4af313073d130d,614a9c7e0714a6ab06bc69d6,2480,1.0,,,False,"{'i': [1, 1, 1, 0, 3, 2, 3, 4, 2, 3, 0, 3, 4, 4, 4, 3], 'j': [4, 3, 2, 3, 4, 1, 0, 0, 0, 1, 1, 3, 4, 3, 2, 2], 't': [4407.199999988079, 6133.799999952316, 7222.099999964237, 8317.899999976158, 11794.5, 13281.399999976158, 15725.399999976158, 17448.599999964237, 18827, 20158.299999952316, 24174.299999952316, 27490.799999952316, 29727, 31163.099999964237, 33347.09999996424, 35021.89999997616], 'hit': ['0', 'C', '0', 'C', '0', '0', 'A', '0', '0', 'A', '0', '0', 'B', 'B', '0', 'A']}",,,"[['unknown', 'sea', 'unknown', 'ship', 'unknown'], ['unknown', 'unknown', 'sea', 'ship', 'sea'], ['sea', 'sea', 'unknown', 'unknown', 'unknown'], ['ship', 'ship', 'ship', 'sea', 'sea'], ['sea', 'unknown', 'sea', 'ship', 'ship']]",,True,,"[['0', '0', '0', 'C', '0'], ['0', '0', '0', 'C', '0'], ['0', '0', '0', '0', '0'], ['A', 'A', 'A', '0', '0'], ['0', '0', '0', 'B', 'B']]",7.0,0.0-9.0-0.3,,1,16.0,216,9.0,1,,,,,,pretend,454046,77,26,Battleships,
6141d2b11c90e99eafe3dc1c,614b4d962f4af313073d130d,614a9c7e0714a6ab06bc69d6,2480,,,,False,,,,,,True,,,,0.0-9.0-1.3,,1,,216,,1,,,,2089.2999999523163,,,456139,77,27,instructions,"[{""page_index"":0,""viewing_time"":2088.7999999523163}]"
6141d2b11c90e99eafe3dc1c,614b4d962f4af313073d130d,614a9c7e0714a6ab06bc69d6,2480,1.0,,,False,"{'i': [1, 2, 3, 2, 2, 0, 3, 4, 4, 4, 3, 0, 1, 0, 0, 2], 'j': [2, 2, 2, 3, 1, 3, 4, 3, 2, 4, 0, 1, 1, 0, 2, 0], 't': [3452.100000023842, 5129.5, 6653.399999976158, 8865.800000011921, 10295.399999976158, 18641.80000001192, 22248.80000001192, 24588.69999998808, 25731.399999976158, 28528.5, 30802.600000023842, 33133.89999997616, 34816, 36363.5, 40255.60000002384, 41540], 'hit': ['0', 'A', '0', '0', 'A', '0', '0', 'C', '0', 'C', '0', 'B', '0', 'B', '0', 'A']}",,,"[['ship', 'ship', 'sea', 'sea', 'unknown'], ['unknown', 'sea', 'sea', 'unknown', 'unknown'], ['ship', 'ship', 'ship', 'sea', 'unknown'], ['sea', 'unknown', 'sea', 'unknown', 'sea'], ['unknown', 'unknown', 'sea', 'ship', 'ship']]",,True,,"[['B', 'B', '0', '0', '0'], ['0', '0', '0', '0', '0'], ['A', 'A', 'A', '0', '0'], ['0', '0', '0', '0', '0'], ['0', '0', '0', 'C', 'C']]",2.0,0.0-9.0-0.4,,1,16.0,216,9.0,1,,,,,,pretend,499842,77,28,Battleships,
6141d2b11c90e99eafe3dc1c,614b4d962f4af313073d130d,614a9c7e0714a6ab06bc69d6,2480,,,,False,,,,,,True,,,,0.0-9.0-1.4,,1,,216,,1,,,,2358.600000023842,,,502204,77,29,instructions,"[{""page_index"":0,""viewing_time"":2358.100000023842}]"
6141d2b11c90e99eafe3dc1c,614b4d962f4af313073d130d,614a9c7e0714a6ab06bc69d6,2480,,,,False,,,,,,True,,,,0.0-10.0,,1,,216,,1,,,,11223.099999964237,,,513428,77,30,instructions,"[{""page_index"":0,""viewing_time"":5728.099999964237},{""page_index"":1,""viewing_time"":5494.699999988079}]"
6141d2b11c90e99eafe3dc1c,614b4d962f4af313073d130d,614a9c7e0714a6ab06bc69d6,2480,,204.0,right,False,,1.0,right,,,True,28.0,"[['B', 'B', '0', '0', '0'], ['0', '0', '0', '0', '0'], ['A', 'A', 'A', '0', '0'], ['0', '0', '0', '0', '0'], ['0', '0', '0', 'C', 'C']]",2.0,0.0-11.0-0.0,left,1,,216,,1,,"['left', 'right', 'left']",,,,judge,591693,77,31,Battleships_replay_2players,
6141d2b11c90e99eafe3dc1c,614b4d962f4af313073d130d,614a9c7e0714a6ab06bc69d6,2480,,,,False,,,,,,True,,,,0.0-11.0-1.0,,1,,216,,1,,,,2702.399999976158,,,594399,77,32,instructions,"[{""page_index"":0,""viewing_time"":2702.099999964237}]"
6141d2b11c90e99eafe3dc1c,614b4d962f4af313073d130d,614a9c7e0714a6ab06bc69d6,2480,,207.0,right,False,,1.0,right,,,True,211.0,"[['0', '0', '0', '0', 'B'], ['0', '0', '0', '0', 'B'], ['0', 'A', 'A', 'A', '0'], ['0', '0', '0', '0', '0'], ['0', '0', 'C', 'C', '0']]",3.0,0.0-11.0-0.1,left,1,,216,,1,,"['left', 'right']",,,,judge,647501,77,33,Battleships_replay_2players,
6141d2b11c90e99eafe3dc1c,614b4d962f4af313073d130d,614a9c7e0714a6ab06bc69d6,2480,,,,False,,,,,,True,,,,0.0-11.0-1.1,,1,,216,,1,,,,1999.0,,,649504,77,34,instructions,"[{""page_index"":0,""viewing_time"":1998.5}]"
6141d2b11c90e99eafe3dc1c,614b4d962f4af313073d130d,614a9c7e0714a6ab06bc69d6,2480,,205.0,right,False,,0.0,left,,,True,202.0,"[['0', '0', '0', '0', '0'], ['0', '0', '0', '0', 'A'], ['0', 'B', 'B', '0', 'A'], ['0', '0', '0', '0', 'A'], ['C', 'C', '0', '0', '0']]",0.0,0.0-11.0-0.2,left,1,,216,,1,,"['left', 'right']",,,,judge,716933,77,35,Battleships_replay_2players,
6141d2b11c90e99eafe3dc1c,614b4d962f4af313073d130d,614a9c7e0714a6ab06bc69d6,2480,,,,False,,,,,,True,,,,0.0-11.0-1.2,,1,,216,,1,,,,3899.800000011921,,,720838,77,36,instructions,"[{""page_index"":0,""viewing_time"":3898.800000011921}]"
6141d2b11c90e99eafe3dc1c,614b4d962f4af313073d130d,614a9c7e0714a6ab06bc69d6,2480,,207.0,right,False,,0.0,left,,,True,36.0,"[['0', '0', '0', '0', 'B'], ['A', 'A', 'A', '0', 'B'], ['0', '0', '0', 'C', '0'], ['0', '0', '0', 'C', '0'], ['0', '0', '0', '0', '0']]",4.0,0.0-11.0-0.3,left,1,,216,,1,,"['left', 'right']",,,,judge,769001,77,37,Battleships_replay_2players,
6141d2b11c90e99eafe3dc1c,614b4d962f4af313073d130d,614a9c7e0714a6ab06bc69d6,2480,,,,False,,,,,,True,,,,0.0-11.0-1.3,,1,,216,,1,,,,4463.599999964237,,,773468,77,38,instructions,"[{""page_index"":0,""viewing_time"":4462.5}]"
